timestamp,accel_x,accel_y,accel_z,gyro_x,gyro_y,gyro_z,mag_x,mag_y,mag_z
8053921773725,-0.8831787,1.5082397,9.011398,-0.40220642,0.077041626,-0.19204712,
8053926809125,-0.8596344,1.4969177,9.453842,0.0,0.0,0.0,0.0,0.0,0.0,
8053931844525,-0.83891296,1.5108337,9.847977,-0.39190674,-0.110809326,-0.12762451,0.0,0.0,0.0,
8053936879926,-0.7720337,1.5320892,10.237396,-0.3499756,-0.206604,-0.09901428,0.0,0.0,0.0,
8053941915326,-0.6839752,1.5334015,10.469177,-0.28562927,-0.30274963,-0.07376099,0.0,0.0,0.0,
8053946950727,-0.5698395,1.5628967,10.542496,-0.20578003,-0.3798523,-0.051254272,17.042542,-22.981262,-46.696472,
8053951986127,-0.4427948,1.6008148,10.506271,-0.12515259,-0.4249115,-0.030838013,17.042542,-22.981262,-46.696472,
8053957021527,-0.29522705,1.6530457,10.525314,-0.05317688,-0.44158936,-0.01576233,17.042542,-22.981262,-46.696472,
8053962056928,-0.20280457,1.7217102,10.41246,1.5258789E-5,-0.43232727,-0.0073547363,17.042542,-22.981262,-46.696472,
8053967092328,-0.18074036,1.7626495,10.265701,0.0332489,-0.39883423,-0.0048828125,17.385864,-22.398376,-47.373962,
8053972127729,-0.17501831,1.758728,10.013504,0.051971436,-0.3382721,-0.007019043,17.385864,-22.398376,-47.373962,
8053977163129,-0.22473145,1.7465363,9.848373,0.04899597,-0.2582245,-0.010345459,17.385864,-22.398376,-47.373962,
8053982198529,-0.2800598,1.7424469,9.723907,0.02810669,-0.16807556,-0.012741089,17.385864,-22.398376,-47.373962,
8053987233930,-0.33137512,1.7545166,9.666809,-0.010513306,-0.07249451,-0.0149383545,17.61322,-22.398376,-47.595215,
8053992269330,-0.36558533,1.7702332,9.627258,-0.055603027,0.018676758,-0.016174316,17.61322,-22.398376,-47.595215,
8053997304731,-0.42549133,1.7578278,9.65741,-0.09609985,0.094192505,-0.014541626,17.61322,-22.398376,-47.595215,
8054002340131,-0.4374237,1.8215485,9.710388,-0.1352539,0.16459656,-0.013214111,17.61322,-22.398376,-47.595215,
8054007375531,-0.42860413,1.8254089,9.697159,-0.1605072,0.21446228,-0.01008606,17.738342,-21.520996,-47.473145,
8054012410932,-0.4001007,1.7736816,9.656677,-0.17114258,0.2429657,-0.0057678223,17.738342,-21.520996,-47.473145,
8054017446332,-0.41374207,1.7349701,9.5243225,-0.16722107,0.25224304,-0.0035247803,17.738342,-21.520996,-47.473145,
8054022481733,-0.39105225,1.7372437,9.447128,-0.16722107,0.25224304,-0.0035247803,17.738342,-21.520996,-47.473145,
8054027517133,-0.35739136,1.77388,9.475662,-0.1326294,0.23054504,0.0037841797,16.896057,-21.57898,-47.055054,
8054032552533,-0.29377747,1.8266754,9.355621,-0.10903931,0.20117188,0.008514404,16.896057,-21.57898,-47.055054,
8054037587934,-0.30464172,1.8654785,9.150391,-0.08392334,0.16690063,0.012863159,16.896057,-21.57898,-47.055054,
8054042623334,-0.28115845,1.8531647,9.071808,-0.057876587,0.12583923,0.01701355,16.583252,-21.711731,-46.925354,
8054047658734,-0.245224,1.9297333,8.981522,-0.034225464,0.0793457,0.01878357,16.583252,-21.711731,-46.925354,
8054052694135,-0.19859314,1.9507294,8.752197,-0.014633179,0.02961731,0.017715454,16.583252,-21.711731,-46.925354,
8054057729535,-0.16789246,2.0205994,8.614548,-0.002105713,-0.019241333,0.016098022,16.583252,-21.711731,-46.925354,
8054062764936,-0.17100525,2.014267,8.6094055,0.0035095215,-0.07763672,0.008468628,16.583252,-21.711731,-47.192383,
8054067800336,-0.19384766,2.0135956,8.657455,0.0066986084,-0.13664246,-0.001373291,16.583252,-21.711731,-47.192383,
8054072835736,-0.18836975,1.9554901,8.725494,0.0042877197,-0.19024658,-0.011749268,16.583252,-21.711731,-47.192383,
8054077871137,-0.20347595,1.8810883,8.865036,-0.002822876,-0.23808289,-0.023727417,16.583252,-21.711731,-47.192383,
8054082906537,-0.2722168,1.8397522,9.066559,-0.011077881,-0.27781677,-0.034057617,15.892029,-21.298218,-46.855164,
8054087941938,-0.30439758,1.8084259,9.238464,-0.018676758,-0.3115387,-0.03981018,15.892029,-21.298218,-46.855164,
8054092977338,-0.29795837,1.7694092,9.418564,-0.02619934,-0.33700562,-0.04411316,15.892029,-21.298218,-46.855164,
8054098012738,-0.30342102,1.7147522,9.544174,-0.03024292,-0.35131836,-0.045837402,15.892029,-21.298218,-46.855164,
8054103048139,-0.2843933,1.6171722,9.716888,-0.034057617,-0.35295105,-0.04475403,15.725708,-21.195984,-46.757507,
8054108083539,-0.2501068,1.5673065,9.974304,-0.03515625,-0.34243774,-0.042770386,15.725708,-21.195984,-46.757507,
8054113118940,-0.2136383,1.5428925,10.178711,-0.034500122,-0.32395935,-0.03831482,15.725708,-21.195984,-46.757507,
8054118154340,-0.21873474,1.5780487,10.270828,-0.02734375,-0.29830933,-0.03186035,15.725708,-21.195984,-46.757507,
8054123189740,-0.23078918,1.6338043,10.272614,-0.011077881,-0.2642975,-0.024490356,15.725708,-22.691345,-47.340393,
8054128225141,-0.28147888,1.6585846,10.164749,0.008056641,-0.2260437,-0.01789856,15.725708,-22.691345,-47.340393,
8054133260541,-0.33702087,1.7376709,9.95369,0.027145386,-0.18345642,-0.0135650635,15.725708,-22.691345,-47.340393,
8054138295942,-0.35087585,1.7910919,9.7747345,0.042785645,-0.14038086,-0.010299683,15.725708,-22.691345,-47.340393,
8054143331342,-0.38580322,1.8371735,9.676514,0.05142212,-0.10173035,-0.006576538,14.97345,-21.862793,-48.161316,
8054148366742,-0.43901062,1.8662262,9.70285,0.052139282,-0.06854248,-0.0045776367,14.97345,-21.862793,-48.161316,
8054153402143,-0.42404175,1.8497772,9.646408,0.047424316,-0.04447937,-0.00390625,14.97345,-21.862793,-48.161316,
8054158437543,-0.37701416,1.838913,9.595093,0.04333496,-0.024810791,-0.001449585,14.97345,-21.862793,-48.161316,
8054163472943,-0.3697815,1.8063965,9.6089325,0.038650513,-0.00730896,0.004638672,14.866638,-21.711731,-48.2666,
8054168508344,-0.32806396,1.8422699,9.603165,0.032470703,0.006164551,0.010101318,14.866638,-21.711731,-48.2666,
8054173543744,-0.3350067,1.8699341,9.469666,0.027618408,0.014099121,0.0135650635,14.866638,-21.711731,-48.2666,
8054178579145,-0.37963867,1.8527069,9.337479,0.023880005,0.020080566,0.016174316,14.866638,-21.711731,-48.2666,
8054183614545,-0.36976624,1.8765869,9.24408,0.019744873,0.024047852,0.020812988,16.15448,-21.711731,-47.950745,
8054188649945,-0.31437683,1.9460297,9.089706,0.011169434,0.026504517,0.023803711,16.15448,-21.711731,-47.950745,
8054193685346,-0.24905396,2.0279388,9.0346985,-3.5095215E-4,0.028686523,0.029418945,16.15448,-21.711731,-47.950745,
8054198720746,-0.14979553,2.1300964,8.990784,-0.016799927,0.02734375,0.035095215,16.15448,-21.711731,-47.950745,
8054203756147,-0.0786438,2.2053528,8.877228,-0.035751343,0.016036987,0.036010742,15.591431,-20.741272,-46.665955,
8054208791547,-0.034805298,2.2584229,8.775391,-0.054840088,-0.0026245117,0.030471802,15.591431,-20.741272,-46.665955,
8054213826947,-0.015365601,2.2700043,8.807785,-0.07157898,-0.027191162,0.014221191,15.591431,-20.741272,-46.665955,
8054218862348,-0.061325073,2.180603,8.98201,-0.08404541,-0.060287476,-0.0013122559,15.591431,-20.741272,-46.665955,
8054223897748,-0.12445068,2.114975,9.205582,-0.0990448,-0.0970459,-0.017562866,15.553284,-20.681763,-46.591187,
8054228933149,-0.042297363,2.053955,9.437912,-0.10820007,-0.13760376,-0.03303528,15.553284,-20.681763,-46.591187,
8054233968549,-0.080322266,1.946228,9.682678,-0.10644531,-0.16921997,-0.044281006,15.553284,-20.681763,-46.591187,
8054239003949,-0.06037903,1.9129639,9.702759,-0.097457886,-0.1920929,-0.054885864,15.553284,-20.681763,-46.591187,
8054244039350,-0.1355133,1.8493652,9.796188,-0.082229614,-0.19714355,-0.061416626,15.553284,-20.681763,-46.591187,
8054249074750,-0.13490295,1.8501434,9.962784,-0.0690918,-0.19241333,-0.06666565,15.553284,-20.681763,-46.591187,
8054254110150,-0.13000488,1.8286438,10.068924,-0.056137085,-0.18197632,-0.0687561,15.553284,-20.681763,-46.591187,
8054259145551,-0.14247131,1.7689819,10.16069,-0.043945313,-0.16395569,-0.06941223,16.900635,-23.068237,-46.59424,
8054264180951,-0.092666626,1.7345581,10.046112,-0.029464722,-0.14022827,-0.06617737,16.900635,-23.068237,-46.59424,
8054269216352,-0.079330444,1.7047272,9.866379,-0.009155273,-0.108169556,-0.059280396,16.900635,-23.068237,-46.59424,
8054274251752,-0.16062927,1.6940155,9.75386,0.010971069,-0.07733154,-0.054031372,16.900635,-23.068237,-46.59424,
8054279287152,-0.25274658,1.6937561,9.688126,0.027435303,-0.050598145,-0.0496521,14.523315,-21.368408,-46.925354,
8054284322553,-0.27752686,1.7293091,9.6471405,0.038757324,-0.028671265,-0.044799805,14.523315,-21.368408,-46.925354,
8054289357953,-0.22961426,1.7453003,9.576248,0.047332764,-0.016189575,-0.037384033,14.523315,-21.368408,-46.925354,
8054294393354,-0.13319397,1.8793793,9.444229,0.055664063,-0.009338379,-0.026748657,14.523315,-21.368408,-46.925354,
8054299428754,0.021591187,1.9905396,9.424881,0.06309509,-0.0035095215,-0.014587402,14.637756,-21.408081,-46.905518,
8054304464154,0.122406006,2.0864716,9.400543,0.062927246,0.001953125,-0.0087890625,14.637756,-21.408081,-46.905518,
8054309499555,0.13041687,2.0836182,9.369385,0.055648804,0.008514404,-0.014968872,14.637756,-21.408081,-46.905518,
8054314534955,0.15635681,2.0687256,9.314835,0.04397583,0.020309448,-0.028503418,14.637756,-21.408081,-46.905518,
8054319570356,0.21647644,2.0329285,9.282852,0.030059814,0.039611816,-0.04446411,16.490173,-21.98944,-46.707153,
8054324605756,0.18736267,1.9526825,9.277405,0.012481689,0.06430054,-0.05973816,16.490173,-21.98944,-46.707153,
8054329641156,0.10273743,1.8886566,9.188004,-0.010238647,0.09529114,-0.074661255,16.490173,-21.98944,-46.707153,
8054334676557,0.08988953,1.8632813,9.153198,-0.03363037,0.13092041,-0.087387085,16.490173,-21.98944,-46.707153,
8054339711957,0.04159546,1.8730316,9.291534,-0.055664063,0.16726685,-0.09680176,15.382385,-21.195984,-48.098755,
8054344747358,0.004928589,1.8545074,9.523788,-0.07376099,0.19526672,-0.10231018,15.382385,-21.195984,-48.098755,
8054349782758,0.0073547363,1.7949524,9.715958,-0.08380127,0.2131958,-0.10494995,15.382385,-21.195984,-48.098755,
8054354818158,0.016479492,1.7529755,9.755814,-0.07727051,0.22846985,-0.10494995,15.382385,-21.195984,-48.098755,
8054359853559,0.02015686,1.738327,9.678421,-0.04815674,0.24668884,-0.10269165,15.42511,-21.282959,-48.18268,
8054364888959,-0.03515625,1.7252197,9.565491,-0.005203247,0.26148987,-0.09794617,15.42511,-21.282959,-48.18268,
8054369924359,-0.13282776,1.7100067,9.41304,0.043670654,0.26953125,-0.09272766,15.42511,-21.282959,-48.18268,
8054374959760,-0.19519043,1.6937561,9.151871,0.09390259,0.27088928,-0.08493042,15.42511,-21.282959,-48.18268,
8054379995160,-0.18681335,1.7028961,8.844986,0.13787842,0.27182007,-0.07293701,15.675354,-21.533203,-48.52295,
8054385030561,-0.1499176,1.7246704,8.568253,0.17248535,0.2740326,-0.055725098,15.675354,-21.533203,-48.52295,
8054390065961,-0.07733154,1.8560791,8.389648,0.19197083,0.27478027,-0.035003662,15.675354,-21.533203,-48.52295,
8054395101361,-0.040161133,1.9647064,8.2543335,0.19677734,0.27241516,-0.013442993,15.675354,-21.533203,-48.52295,
8054400136762,-0.11192322,2.1059723,8.264175,0.19058228,0.26104736,0.0035552979,15.382385,-19.47937,-47.0932,
8054405172162,-0.15803528,2.164505,8.298691,0.17848206,0.24012756,0.018051147,15.382385,-19.47937,-47.0932,
8054410175689,-0.24958801,2.199997,8.368362,0.1669159,0.21211243,0.028244019,15.382385,-19.47937,-47.0932,
8054415211089,-0.28704834,2.3865356,8.6480255,0.15267944,0.17218018,0.039352417,15.382385,-19.47937,-47.0932,
8054420246489,-0.07136536,2.6307526,8.754959,0.14006042,0.12930298,0.049545288,15.615845,-19.98291,-46.99402,
8054425281890,0.18127441,2.7631836,8.552612,0.13270569,0.10064697,0.061264038,15.615845,-19.98291,-46.99402,
8054430317290,0.36480713,2.8802032,8.35939,0.12998962,0.09555054,0.07131958,15.615845,-19.98291,-46.99402,
8054435352691,0.46229553,2.9061584,8.39061,0.121917725,0.105148315,0.070373535,15.615845,-19.98291,-46.99402,
8054440388091,0.529068,2.979782,8.5327,0.10151672,0.10601807,0.062683105,16.508484,-21.835327,-46.446228,
8054445423491,0.5686035,3.081009,8.734894,0.07092285,0.095687866,0.04307556,16.508484,-21.835327,-46.446228,
8054450458892,0.47990417,3.093216,8.723099,0.047805786,0.09005737,0.01499939,16.508484,-21.835327,-46.446228,
8054455494292,0.38786316,3.0156403,8.724747,0.025878906,0.09768677,-0.015563965,16.23993,-21.025085,-45.9198,
8054460529693,0.2516327,2.8913116,8.703125,0.002822876,0.11653137,-0.041763306,16.23993,-21.025085,-45.9198,
8054465565093,0.15890503,2.8439636,8.649063,-0.02230835,0.14147949,-0.06518555,16.23993,-21.025085,-45.9198,
8054470600493,0.046875,2.8140259,8.616455,-0.04664612,0.16273499,-0.07829285,16.23993,-21.025085,-45.9198,
8054475635894,0.011444092,2.8695526,8.620712,-0.07435608,0.1794281,-0.08276367,16.511536,-21.025085,-46.0968,
8054480671294,-0.03590393,2.9330292,8.619247,-0.095703125,0.18515015,-0.08439636,16.511536,-21.025085,-46.0968,
8054485706694,6.713867E-4,2.98143,8.584702,-0.112213135,0.17567444,-0.08255005,16.511536,-21.025085,-46.0968,
8054490742095,0.07936096,3.079773,8.450531,-0.12272644,0.15310669,-0.083099365,16.511536,-21.025085,-46.0968,
8054495777495,0.18417358,3.1444244,8.399948,-0.13174438,0.11288452,-0.087127686,17.463684,-21.025085,-46.684265,
8054500812896,0.29640198,3.2249756,8.353348,-0.14312744,0.056930542,-0.09487915,17.463684,-21.025085,-46.684265,
8054505848296,0.38046265,3.261444,8.454239,-0.16365051,-0.019638062,-0.10787964,17.463684,-21.025085,-46.684265,
8054510883696,0.4723816,3.2399292,8.543091,-0.19024658,-0.09635925,-0.12515259,17.463684,-21.025085,-46.684265,
8054515919097,0.5157471,3.2222748,8.711868,-0.22294617,-0.16859436,-0.14538574,17.956543,-21.025085,-46.925354,
8054520954497,0.5495148,3.1826935,8.915329,-0.26226807,-0.23173523,-0.1676178,17.956543,-21.025085,-46.925354,
8054525989898,0.54255676,3.1248322,9.129318,-0.30282593,-0.2799225,-0.18969727,17.956543,-21.025085,-46.925354,
8054531025298,0.5216675,3.0814056,9.4075775,-0.34320068,-0.3177185,-0.21095276,17.956543,-21.025085,-46.925354,
8054536060698,0.41244507,3.009674,9.741119,-0.384552,-0.34710693,-0.23320007,17.610168,-21.255493,-47.14966,
8054541096099,0.27201843,2.9189453,10.084183,-0.41603088,-0.36653137,-0.25245667,17.610168,-21.255493,-47.14966,
8054546131499,0.1269989,2.8046875,10.411194,-0.43754578,-0.3746338,-0.27053833,17.610168,-21.255493,-47.14966,
8054551166900,-0.04925537,2.6524506,10.655533,-0.44544983,-0.36825562,-0.28553772,17.610168,-21.255493,-47.14966,
8054556202300,-0.21131897,2.5006714,10.833466,-0.43673706,-0.35021973,-0.29284668,16.744995,-21.530151,-47.299194,
8054561237700,-0.30012512,2.4448242,10.888092,-0.40979004,-0.3223114,-0.29153442,16.744995,-21.530151,-47.299194,
8054566273101,-0.3209381,2.4071503,10.89447,-0.36375427,-0.2848053,-0.28074646,16.744995,-21.530151,-47.299194,
8054571308501,-0.26930237,2.4205322,10.770859,-0.307724,-0.24432373,-0.2625122,16.744995,-21.530151,-47.299194,
8054576343901,-0.19439697,2.4782257,10.51387,-0.24382019,-0.2052002,-0.23925781,16.412354,-21.195984,-46.757507,
8054581379302,-0.058944702,2.5155334,10.142227,-0.17576599,-0.16926575,-0.21536255,16.412354,-21.195984,-46.757507,
8054586414702,0.071014404,2.5944824,9.604416,-0.11079407,-0.13471985,-0.19412231,16.412354,-21.195984,-46.757507,
8054591450103,0.12150574,2.6972198,8.99408,-0.048217773,-0.098480225,-0.17660522,16.412354,-21.195984,-46.757507,
8054596485503,0.17703247,2.811264,8.378387,0.0022125244,-0.06956482,-0.16622925,16.551208,-20.779419,-47.572327,
8054601520903,0.21463013,2.9385223,7.917816,0.033477783,-0.055786133,-0.16003418,16.551208,-20.779419,-47.572327,
8054606556304,0.27911377,3.0641022,7.7473145,0.044906616,-0.055419922,-0.15609741,16.551208,-20.779419,-47.572327,
8054611591704,0.3301239,3.1182098,7.5855103,0.041763306,-0.06730652,-0.15203857,16.551208,-20.779419,-47.572327,
8054616627105,0.3736267,3.206894,7.50589,0.028060913,-0.08477783,-0.15090942,16.394043,-20.239258,-48.135376,
8054621662505,0.3719635,3.2512665,7.509094,0.0067596436,-0.1083374,-0.154953,16.394043,-20.239258,-48.135376,
8054626697905,0.3081665,3.2088165,7.4603424,-0.014663696,-0.13369751,-0.16479492,16.394043,-20.239258,-48.135376,
8054631733306,0.20620728,3.1725464,7.490082,-0.034576416,-0.16152954,-0.1775055,16.394043,-20.239258,-48.135376,
8054636768706,0.16557312,3.0637054,7.520111,-0.05429077,-0.18817139,-0.18882751,15.896606,-20.33844,-47.261047,
8054641804107,0.1164093,3.0171814,7.6284943,-0.074920654,-0.21070862,-0.19602966,15.896606,-20.33844,-47.261047,
8054646839507,0.052963257,2.932602,7.7407837,-0.09613037,-0.22669983,-0.19683838,15.896606,-20.33844,-47.261047,
8054651874907,-0.006164551,2.900406,7.9203033,-0.11936951,-0.23620605,-0.19293213,15.896606,-20.33844,-47.261047,
8054656910308,-0.04396057,2.813614,8.1772,-0.14039612,-0.23887634,-0.1855011,16.384888,-20.013428,-47.10083,
8054661945708,-0.06387329,2.7685547,8.448425,-0.15498352,-0.23898315,-0.17576599,16.384888,-20.013428,-47.10083,
8054666981109,-0.030456543,2.7341766,8.596313,-0.15963745,-0.24005127,-0.16281128,16.384888,-20.013428,-47.10083,
8054672016509,-0.0033721924,2.6912994,8.743027,-0.15963745,-0.24005127,-0.16281128,16.384888,-20.013428,-47.10083,
8054677051909,0.029251099,2.6669006,8.934616,-0.13269043,-0.2390747,-0.12705994,16.506958,-19.903564,-47.006226,
8054682087310,0.038406372,2.568985,9.048279,-0.1078949,-0.23750305,-0.10699463,16.506958,-19.903564,-47.006226,
8054687122710,0.037109375,2.6150665,8.98436,-0.07873535,-0.22955322,-0.08534241,16.506958,-19.903564,-47.006226,
8054692158110,0.024383545,2.647049,8.811768,-0.05029297,-0.2157135,-0.06286621,16.06903,-20.166016,-47.0932,
8054697193511,0.17344666,2.7745667,8.752914,-0.025527954,-0.1972351,-0.037826538,16.06903,-20.166016,-47.0932,
8054702228911,0.40359497,2.8796234,8.667831,-0.0048065186,-0.18130493,-0.014465332,16.06903,-20.166016,-47.0932,
8054707264312,0.6097717,3.0944977,8.724976,0.009719849,-0.17514038,0.004058838,16.06903,-20.166016,-47.0932,
8054712299712,0.77490234,3.1865234,8.726212,0.027633667,-0.17958069,0.014007568,15.881348,-19.979858,-47.82257,
8054717335112,0.8353729,3.2310486,8.674652,0.046966553,-0.1927185,0.014297485,15.881348,-19.979858,-47.82257,
8054722370513,0.8892822,3.220932,8.520172,0.06855774,-0.20425415,0.0066833496,15.881348,-19.979858,-47.82257,
8054727405913,0.8359375,3.212387,8.301712,0.08811951,-0.20907593,-0.0047912598,15.881348,-19.979858,-47.82257,
8054732441314,0.81344604,3.1985626,8.146118,0.101882935,-0.20907593,-0.016784668,16.297913,-19.441223,-48.806763,
8054737476714,0.7745209,3.2481232,7.991379,0.10624695,-0.20799255,-0.026794434,16.297913,-19.441223,-48.806763,
8054742512114,0.74082947,3.2869568,7.926117,0.09805298,-0.20373535,-0.038772583,16.297913,-19.441223,-48.806763,
8054747547515,0.69447327,3.3470306,7.898758,0.081954956,-0.20275879,-0.047470093,16.297913,-19.441223,-48.806763,
8054752582915,0.64338684,3.3472595,7.9580994,0.06402588,-0.20851135,-0.054031372,16.755676,-19.136047,-49.10431,
8054757618316,0.5895996,3.3173523,8.060684,0.04763794,-0.22007751,-0.06059265,16.755676,-19.136047,-49.10431,
8054762653716,0.53518677,3.3283691,8.188385,0.036209106,-0.23469543,-0.06565857,16.755676,-19.136047,-49.10431,
8054767689116,0.4796753,3.2999878,8.378128,0.028244019,-0.2482605,-0.06802368,16.755676,-19.136047,-49.10431,
8054772724517,0.4488678,3.3167114,8.6671295,0.020523071,-0.25749207,-0.06713867,15.913391,-19.346619,-48.69232,
8054777759917,0.49423218,3.3446655,9.00235,0.010681152,-0.26301575,-0.0617218,15.913391,-19.346619,-48.69232,
8054782795318,0.57670593,3.387207,9.340363,0.0047454834,-0.261261,-0.05404663,15.913391,-19.346619,-48.69232,
8054787830718,0.63749695,3.4395447,9.562119,0.0054779053,-0.24946594,-0.045822144,15.913391,-19.346619,-48.69232,
8054792866118,0.740921,3.4935913,9.757523,0.012588501,-0.230896,-0.037994385,15.060425,-19.587708,-48.9563,
8054797901519,0.80288696,3.5690765,9.9904175,0.02772522,-0.20536804,-0.032699585,15.060425,-19.587708,-48.9563,
8054802936919,0.78645325,3.649887,10.159744,0.046936035,-0.17532349,-0.031936646,15.060425,-19.587708,-48.9563,
8054807972319,0.722702,3.6568909,10.273651,0.067596436,-0.14234924,-0.035079956,15.060425,-19.587708,-48.9563,
8054813007720,0.5830078,3.574829,10.305145,0.08728027,-0.10324097,-0.04084778,14.866638,-19.651794,-49.272156,
8054818043120,0.532547,3.5135803,10.177322,0.10731506,-0.05734253,-0.0473938,14.866638,-19.651794,-49.272156,
8054823078521,0.47763062,3.436325,10.006134,0.12284851,-0.012359619,-0.050827026,14.866638,-19.651794,-49.272156,
8054828113921,0.48887634,3.4519653,9.938156,0.13293457,0.03302002,-0.047027588,14.866638,-19.651794,-49.272156,
8054833149321,0.53700256,3.5412445,9.843063,0.13430786,0.066848755,-0.037109375,15.100098,-19.184875,-48.58551,
8054838184722,0.52285767,3.6298218,9.844742,0.12989807,0.084747314,-0.027008057,15.100098,-19.184875,-48.58551,
8054843220122,0.49900818,3.6621094,9.869064,0.12185669,0.09213257,-0.01802063,15.100098,-19.184875,-48.58551,
8054848255523,0.51600647,3.646576,9.872787,0.106918335,0.092315674,-0.012786865,15.100098,-19.184875,-48.58551,
8054853290923,0.566803,3.6807861,9.928436,0.09060669,0.0861969,-0.010360718,14.138794,-19.560242,-47.68524,
8054858326323,0.5823517,3.750763,10.073425,0.06947327,0.07354736,-0.008987427,14.138794,-19.560242,-47.68524,
8054863361724,0.56803894,3.815155,10.314789,0.04093933,0.058441162,-0.008850098,14.138794,-19.560242,-47.68524,
8054868397124,0.6026459,3.8493652,10.723373,0.005508423,0.04411316,-0.011795044,14.138794,-19.560242,-47.68524,
8054873432525,0.6324463,3.7080994,11.163849,-0.03465271,0.032913208,-0.019104004,13.6657715,-19.822693,-47.428894,
8054878467925,0.6048889,3.5524902,11.54277,-0.06893921,0.029205322,-0.027801514,13.6657715,-19.822693,-47.428894,
8054883503325,0.516922,3.3070374,12.10228,-0.0945282,0.032058716,-0.03591919,13.6657715,-19.822693,-47.428894,
8054888538726,0.34532166,3.2005463,12.423843,-0.110580444,0.042129517,-0.039718628,14.700317,-20.341492,-47.932434,
8054893574126,0.33546448,3.1795502,12.856033,-0.11225891,0.05857849,-0.031906128,14.700317,-20.341492,-47.932434,
8054898609526,0.16133118,3.128296,13.171677,-0.09933472,0.07557678,-0.019882202,14.700317,-20.341492,-47.932434,
8054903644927,0.059249878,3.0514374,13.448013,-0.06867981,0.0848999,-0.0064086914,14.700317,-20.341492,-47.932434,
8054908680327,-0.066207886,3.0056763,13.512161,-0.024047852,0.08824158,0.011199951,16.345215,-18.94226,-47.587585,
8054913715728,-0.15032959,2.995041,13.395386,0.03138733,0.09236145,0.030929565,16.345215,-18.94226,-47.587585,
8054918751128,-0.19641113,2.970337,13.214249,0.09388733,0.09687805,0.05718994,16.345215,-18.94226,-47.587585,
8054923786528,-0.26794434,2.963623,13.136337,0.14587402,0.09996033,0.07807922,16.345215,-18.94226,-47.587585,
8054928821929,-0.23725891,2.9893036,13.082565,0.18247986,0.10279846,0.099624634,16.755676,-18.449402,-47.428894,
8054933857329,-0.18904114,3.0236664,12.933212,0.20458984,0.1103363,0.11831665,16.755676,-18.449402,-47.428894,
8054938892730,-0.11643982,3.1121216,12.805801,0.21723938,0.12705994,0.13168335,16.755676,-18.449402,-47.428894,
8054943928130,-0.10626221,3.2389374,12.571106,0.21839905,0.15074158,0.1379242,16.755676,-18.449402,-47.428894,
8054948963530,-0.106796265,3.31044,12.320496,0.20274353,0.18721008,0.1377716,14.920044,-19.720459,-48.391724,
8054953998931,-0.1356659,3.3567047,12.015198,0.17402649,0.22895813,0.12857056,14.920044,-19.720459,-48.391724,
8054959034331,-0.2002716,3.2993927,11.736206,0.13502502,0.2680664,0.11073303,14.920044,-19.720459,-48.391724,
8054964069732,-0.2748413,3.173355,11.601746,0.09156799,0.29597473,0.08621216,14.920044,-19.720459,-48.391724,
8054969105132,-0.3917694,2.983078,11.49678,0.045272827,0.31617737,0.05999756,15.519714,-19.85321,-47.90497,
8054974140532,-0.5061798,2.8118896,11.379913,-0.008239746,0.33836365,0.03627014,15.519714,-19.85321,-47.90497,
8054979175933,-0.59539795,2.7848358,11.248001,-0.070114136,0.36631775,0.018173218,15.519714,-19.85321,-47.90497,
8054984211333,-0.6818085,2.7761383,11.232956,-0.1260376,0.3873291,0.008575439,15.519714,-19.85321,-47.90497,
8054989246734,-0.7779999,2.676773,11.245026,-0.17538452,0.38890076,0.0020446777,15.725708,-19.822693,-47.76306,
8054994282134,-0.84381104,2.5271149,11.323502,-0.2130127,0.3640747,-0.0040130615,15.725708,-19.822693,-47.76306,
8054999317534,-0.8721924,2.3213959,11.467361,-0.23316956,0.3158722,-0.008255005,15.725708,-19.822693,-47.76306,
8055004352935,-0.90382385,2.1069336,11.551865,-0.23872375,0.24757385,-0.0093688965,15.725708,-19.822693,-47.76306,
8055009388335,-0.917923,1.9841919,11.548386,-0.23402405,0.17050171,-0.007019043,15.725708,-20.741272,-48.658752,
8055014423735,-0.91352844,1.9056396,11.571808,-0.22999573,0.10194397,-0.0012207031,15.725708,-20.741272,-48.658752,
8055019459136,-0.8436432,1.8269653,11.624069,-0.23371887,0.045898438,0.006439209,15.725708,-20.741272,-48.658752,
8055024494536,-0.67367554,1.7671356,11.736206,-0.24813843,0.004562378,0.013397217,15.725708,-20.741272,-48.658752,
8055029529937,-0.45321655,1.7233582,11.868149,-0.26654053,-0.0259552,0.01965332,15.725708,-19.619751,-47.564697,
8055034565337,-0.35035706,1.6690063,12.023621,-0.28240967,-0.056793213,0.025650024,15.725708,-19.619751,-47.564697,
8055039600737,-0.4111328,1.539978,12.159485,-0.28755188,-0.08970642,0.02520752,15.725708,-19.619751,-47.564697,
8055044636138,-0.51849365,1.3074799,12.280914,-0.28082275,-0.11785889,0.020355225,15.725708,-19.619751,-47.564697,
8055049671538,-0.5615845,1.1503448,12.345413,-0.26538086,-0.13275146,0.01651001,15.725708,-19.47937,-47.428894,
8055054706939,-0.6263733,1.0014191,12.260223,-0.24209595,-0.13124084,0.019866943,15.725708,-19.47937,-47.428894,
8055059742339,-0.7032776,0.87016296,12.136276,-0.21520996,-0.109451294,0.02897644,15.725708,-19.47937,-47.428894,
8055064777739,-0.84114075,0.7508087,11.958084,-0.17744446,-0.069366455,0.04560852,15.725708,-19.47937,-47.428894,
8055069813140,-0.92848206,0.6411743,11.594101,-0.13424683,-0.02104187,0.06781006,15.229797,-20.306396,-48.554993,
8055074848540,-0.9824524,0.562027,11.1073,-0.08558655,0.03125,0.09649658,15.229797,-20.306396,-48.554993,
8055079883941,-0.9373627,0.59147644,10.611649,-0.03942871,0.08258057,0.12974548,15.229797,-20.306396,-48.554993,
8055084919341,-0.8684845,0.5926666,10.083969,-0.002319336,0.13891602,0.16267395,15.229797,-20.306396,-48.554993,
8055089954741,-0.71751404,0.6426239,9.526642,0.021057129,0.19378662,0.19325256,14.213562,-19.343567,-47.628784,
8055094990142,-0.61753845,0.71055603,9.050171,0.03529358,0.2574463,0.22497559,14.213562,-19.343567,-47.628784,
8055100025542,-0.50627136,0.7555847,8.454712,0.037887573,0.31150818,0.24934387,14.213562,-19.343567,-47.628784,
8055105060943,-0.45643616,0.86772156,7.9166718,0.036743164,0.35302734,0.2679596,14.213562,-19.343567,-47.628784,
8055110096343,-0.36351013,0.9947357,7.3935547,0.028030396,0.3751831,0.28085327,14.213562,-19.343567,-47.628784,
8055115131743,-0.26643372,1.0398865,7.021103,0.028030396,0.3751831,0.28085327,14.213562,-19.343567,-47.628784,
8055120167144,-0.3130951,1.185791,6.5855103,0.0048065186,0.3527527,0.2923584,14.213562,-19.343567,-47.628784,
8055125202544,-0.2731018,1.1812897,6.327942,-0.02029419,0.30693054,0.28831482,14.18457,-19.311523,-47.599792,
8055130237944,-0.3362732,1.2588348,6.1840363,-0.048355103,0.25151062,0.2795105,14.18457,-19.311523,-47.599792,
8055135273345,-0.26924133,1.3109283,6.19606,-0.07977295,0.18411255,0.2703247,14.18457,-19.311523,-47.599792,
8055140308745,-0.32518005,1.3449707,6.198944,-0.11097717,0.10270691,0.25772095,14.18457,-19.311523,-47.599792,
8055145344146,-0.38056946,1.2260132,6.371002,-0.14343262,0.015136719,0.24281311,14.877319,-19.685364,-48.254395,
8055150379546,-0.45732117,1.065506,6.585388,-0.17037964,-0.068878174,0.22982788,14.877319,-19.685364,-48.254395,
8055155414946,-0.41275024,0.9952698,6.823944,-0.1993103,-0.15486145,0.21977234,14.877319,-19.685364,-48.254395,
8055160450347,-0.37660217,0.9854431,7.0437927,-0.22143555,-0.22563171,0.21681213,14.877319,-19.685364,-48.254395,
8055165485747,-0.29588318,1.0419464,7.3246,-0.24082947,-0.2866211,0.21884155,15.209961,-20.681763,-47.93091,
8055170521148,-0.27833557,1.0792084,7.6700745,-0.25808716,-0.33831787,0.22322083,15.209961,-20.681763,-47.93091,
8055175556548,-0.22964478,1.0383606,8.0816345,-0.27095032,-0.37869263,0.2268219,15.209961,-20.681763,-47.93091,
8055180591948,-0.15046692,0.9671478,8.501434,-0.2805786,-0.40698242,0.22827148,15.209961,-20.681763,-47.93091,
8055185627349,-0.053756714,0.9536896,8.846451,-0.28489685,-0.41825867,0.22869873,15.209961,-20.655823,-47.982788,
8055190662749,0.057495117,1.0041656,9.102386,-0.28053284,-0.40623474,0.23066711,15.209961,-20.655823,-47.982788,
8055195698150,0.18417358,1.0591888,9.281982,-0.27285767,-0.3722229,0.23069763,15.209961,-20.655823,-47.982788,
8055200733550,0.3043518,1.1493683,9.377762,-0.2637329,-0.31692505,0.22680664,15.209961,-20.655823,-47.982788,
8055205768950,0.42240906,1.2710419,9.339645,-0.25268555,-0.24533081,0.22172546,15.174866,-20.132446,-48.60077,
8055210804351,0.4316864,1.3256531,9.239761,-0.24023438,-0.15821838,0.21063232,15.174866,-20.132446,-48.60077,
8055215839751,0.31137085,1.2537384,9.068817,-0.22549438,-0.05960083,0.19137573,15.174866,-20.132446,-48.60077,
8055220875151,0.15148926,1.1854248,8.776459,-0.21142578,0.03668213,0.17019653,15.174866,-20.132446,-48.60077,
8055225910552,-0.010513306,1.1309509,8.45639,-0.19769287,0.1299591,0.15245056,14.866638,-18.278503,-48.60077,
8055230945952,-0.16012573,1.0833893,8.094666,-0.18287659,0.21606445,0.14160156,14.866638,-18.278503,-48.60077,
8055235981353,-0.2517395,1.0761108,7.6844482,-0.1676178,0.28459167,0.13917542,14.866638,-18.278503,-48.60077,
8055241016753,-0.2617035,1.1064453,7.2426147,-0.14706421,0.33587646,0.14419556,14.866638,-18.278503,-48.60077,
8055246052153,-0.2733307,1.1503448,6.7994995,-0.11773682,0.36090088,0.15490723,14.866638,-18.278503,-48.69995,
8055251087554,-0.25875854,1.1805573,6.4518433,-0.08305359,0.36187744,0.16915894,14.866638,-18.278503,-48.69995,
8055256122954,-0.20965576,1.2921448,6.090225,-0.044052124,0.34202576,0.18441772,14.866638,-18.278503,-48.69995,
8055261158355,-0.13160706,1.4053955,5.7016754,-0.003616333,0.3056183,0.20050049,14.866638,-18.278503,-48.69995,
8055266193755,-0.023345947,1.5457153,5.363785,0.03388977,0.25686646,0.2130127,14.923096,-18.56842,-49.272156,
8055271229155,0.118881226,1.6660461,5.0569305,0.06968689,0.18713379,0.2230072,14.923096,-18.56842,-49.272156,
8055276264556,0.19100952,1.7659912,4.960434,0.09710693,0.10847473,0.22850037,14.923096,-18.56842,-49.272156,
8055281299956,0.32615662,1.8385773,5.0225983,0.113464355,0.027893066,0.22669983,14.923096,-18.56842,-49.272156,
8055286335357,0.43955994,1.9574127,5.2127533,0.114990234,-0.042404175,0.22164917,15.209961,-19.995117,-49.272156,
8055291370757,0.5039978,2.0840607,5.4464874,0.106414795,-0.09703064,0.21052551,15.209961,-19.995117,-49.272156,
8055296406157,0.57733154,2.1128082,5.7705994,0.09007263,-0.12826538,0.19570923,15.209961,-19.995117,-49.272156,
8055301441558,0.56536865,2.1448822,6.0200806,0.06755066,-0.13812256,0.17547607,15.209961,-19.995117,-49.272156,
8055306476958,0.49742126,2.1421356,6.2984924,0.044509888,-0.1214447,0.15464783,15.135193,-19.551086,-49.053955,
8055311512359,0.46707153,2.181961,6.5115356,0.023590088,-0.08731079,0.13591003,15.135193,-19.551086,-49.053955,
8055316547759,0.3179474,2.1703033,6.6788483,0.006072998,-0.040893555,0.116363525,15.135193,-19.551086,-49.053955,
8055321583159,0.22088623,2.149994,6.9181213,0.006072998,-0.040893555,0.116363525,15.135193,-19.551086,-49.053955,
8055326618560,0.17442322,2.1823425,7.15152,-0.0016479492,0.038330078,0.08874512,14.94751,-18.34259,-47.947693,
8055331653960,0.06173706,2.0995636,7.281708,0.010467529,0.06808472,0.08061218,14.94751,-18.34259,-47.947693,
8055336689360,-0.07362366,1.998642,7.217102,0.033828735,0.09454346,0.076797485,14.94751,-18.34259,-47.947693,
8055341724761,-0.12889099,1.9718475,7.1842194,0.061294556,0.12286377,0.07980347,15.209961,-19.651794,-46.925354,
8055346760161,-0.115112305,2.0907288,7.036331,0.088897705,0.14979553,0.09059143,15.209961,-19.651794,-46.925354,
8055351795562,-0.09750366,2.1939545,6.936905,0.110702515,0.1743927,0.1078949,15.209961,-19.651794,-46.925354,
8055356830962,-0.012252808,2.2943115,6.7754364,0.125,0.1949768,0.12425232,15.209961,-19.651794,-46.925354,
8055361866362,0.03945923,2.3394623,6.81868,0.12934875,0.20768738,0.14089966,14.912415,-19.554138,-47.60132,
8055366901763,0.13983154,2.4605713,6.9492035,0.125,0.21282959,0.15245056,14.912415,-19.554138,-47.60132,
8055371937163,0.20013428,2.5823975,7.1327667,0.112716675,0.21044922,0.16175842,14.912415,-19.554138,-47.60132,
8055376972564,0.25697327,2.6917725,7.3521423,0.09992981,0.19807434,0.16738892,14.912415,-19.554138,-47.60132,
8055382007964,0.2618103,2.7941132,7.526779,0.08987427,0.1773529,0.16595459,14.389038,-19.519043,-49.066162,
8055387043364,0.2292633,2.8578491,7.7086945,0.084609985,0.15008545,0.15904236,14.389038,-19.519043,-49.066162,
8055392078765,0.14772034,2.857895,8.005417,0.07737732,0.1085968,0.14414978,14.389038,-19.519043,-49.066162,
8055397114165,0.005050659,2.815506,8.512543,0.0667572,0.061798096,0.12440491,14.389038,-19.519043,-49.066162,
8055402149566,-0.08483887,2.7946472,9.189545,0.053451538,0.011245728,0.10331726,14.866638,-19.995117,-48.60077,
8055407184966,-0.1580658,2.7525635,9.888824,0.04168701,-0.034332275,0.085861206,14.866638,-19.995117,-48.60077,
8055412220366,-0.21873474,2.6377106,10.513657,0.04135132,-0.07373047,0.072525024,14.866638,-19.995117,-48.60077,
8055417255767,-0.30410767,2.4855957,11.14743,0.05783081,-0.1048584,0.060928345,14.866638,-19.995117,-48.60077,
8055422291167,-0.3759613,2.321167,11.462219,0.095687866,-0.12753296,0.054229736,14.927673,-19.56482,-48.66028,
8055427326568,-0.38319397,2.1611328,11.593658,0.14756775,-0.13859558,0.05418396,14.927673,-19.56482,-48.66028,
8055432361968,-0.39067078,2.0865784,11.692596,0.20315552,-0.13679504,0.05860901,14.927673,-19.56482,-48.66028,
8055437397368,-0.3748474,2.0574493,11.90892,0.24787903,-0.12449646,0.06866455,14.927673,-19.56482,-48.66028,
8055442432769,-0.29815674,2.006546,12.147125,0.27452087,-0.10423279,0.08294678,14.653015,-19.050598,-49.269104,
8055447468169,-0.22259521,1.9322357,12.337799,0.28536987,-0.070495605,0.09887695,14.653015,-19.050598,-49.269104,
8055452503569,-0.115371704,1.9046478,12.5125885,0.28678894,-0.020629883,0.11340332,14.653015,-19.050598,-49.269104,
8055457538970,0.0128479,1.9428253,12.481689,0.28126526,0.037841797,0.12654114,14.653015,-19.050598,-49.269104,
8055462574370,0.12802124,2.0168762,12.340363,0.26756287,0.10031128,0.13748169,14.009094,-19.47937,-50.109863,
8055467609771,0.22180176,2.1017914,12.204773,0.24380493,0.15852356,0.14289856,14.009094,-19.47937,-50.109863,
8055472645171,0.32867432,2.1883545,12.115616,0.21080017,0.20014954,0.1403656,14.009094,-19.47937,-50.109863,
8055477680571,0.5309448,2.2164307,12.258972,0.16545105,0.2272644,0.12944031,14.009094,-19.47937,-50.109863,
8055482715972,0.70495605,2.2535553,12.559921,0.11172485,0.23474121,0.113601685,14.889526,-19.332886,-48.81897,
8055487751372,0.9353485,2.273056,12.884552,0.05783081,0.22019958,0.089660645,14.889526,-19.332886,-48.81897,
8055492786773,1.0760803,2.2514954,13.14183,0.01260376,0.18304443,0.05545044,14.889526,-19.332886,-48.81897,
8055497822173,1.0932312,2.149887,13.341003,-0.014785767,0.11936951,0.015014648,14.889526,-19.332886,-48.81897,
8055502857573,0.9556732,1.9820251,13.611984,-0.021255493,0.0382843,-0.030944824,15.534973,-20.126343,-47.613525,
8055507892974,0.68955994,1.7516937,13.755768,-0.009796143,-0.07170105,-0.088409424,15.534973,-20.126343,-47.613525,
8055512928374,0.37820435,1.4396667,13.964462,0.0152282715,-0.18591309,-0.1350708,15.534973,-20.126343,-47.613525,
8055517963775,0.09700012,1.2124481,14.126022,0.048461914,-0.28981018,-0.16999817,15.534973,-20.126343,-47.613525,
8055522999175,-0.109191895,0.99516296,14.180084,0.07814026,-0.372818,-0.18850708,14.866638,-21.368408,-48.2666,
8055528034575,-0.12510681,0.86875916,14.035904,0.10769653,-0.42990112,-0.18830872,14.866638,-21.368408,-48.2666,
8055533069976,-0.05319214,0.8069,13.793747,0.13311768,-0.45991516,-0.17346191,14.866638,-21.368408,-48.2666,
8055538105376,0.059158325,0.8297882,13.628586,0.15449524,-0.47502136,-0.14846802,15.122986,-19.743347,-47.514343,
8055543140776,0.10978699,0.81211853,13.222443,0.1673584,-0.4723053,-0.12435913,15.122986,-19.743347,-47.514343,
8055548176177,0.15248108,0.7992859,12.792633,0.17208862,-0.45515442,-0.09950256,15.122986,-19.743347,-47.514343,
8055553211577,0.22026062,0.94311523,12.3428955,0.16404724,-0.42625427,-0.08027649,15.122986,-19.743347,-47.514343,
8055558246978,0.3867035,1.1334839,12.211594,0.13922119,-0.39317322,-0.06665039,14.503479,-19.335938,-47.78595,
8055563282378,0.4459076,1.2690582,11.975235,0.1058197,-0.3659973,-0.057785034,14.503479,-19.335938,-47.78595,
8055568317778,0.5031433,1.3447113,11.97847,0.058883667,-0.3461151,-0.05609131,14.503479,-19.335938,-47.78595,
8055573353179,0.5923004,1.3943787,11.899063,0.014190674,-0.3354187,-0.06600952,14.503479,-19.335938,-47.78595,
8055578388579,0.6921997,1.4966736,11.813873,-0.029541016,-0.33148193,-0.08262634,13.6657715,-20.509338,-48.768616,
8055583423980,0.80366516,1.6555939,11.7977295,-0.07369995,-0.32954407,-0.10575867,13.6657715,-20.509338,-48.768616,
8055588459380,1.0095367,1.7618561,11.827515,-0.120651245,-0.32847595,-0.13546753,13.6657715,-20.509338,-48.768616,
8055593494780,1.2254486,1.8190155,12.075684,-0.17092896,-0.32810974,-0.17358398,13.6657715,-20.509338,-48.768616,
8055598530181,1.4033203,1.8139648,12.442459,-0.22698975,-0.32946777,-0.22525024,13.957214,-20.217896,-48.86322,
8055603565581,1.4813995,1.7970734,12.82486,-0.27534485,-0.3280182,-0.28199768,13.957214,-20.217896,-48.86322,
8055608600982,1.4247589,1.6312103,13.038437,-0.31019592,-0.32250977,-0.34571838,13.957214,-20.217896,-48.86322,
8055613636382,1.2636108,1.3942261,13.088638,-0.32731628,-0.3058319,-0.41004944,13.957214,-20.217896,-48.86322,
8055618671782,0.97994995,1.1472626,13.105331,-0.33155823,-0.27827454,-0.47123718,14.079285,-19.29779,-48.254395,
8055623707183,0.5607605,0.80070496,13.084473,-0.32289124,-0.24429321,-0.5254822,14.079285,-19.29779,-48.254395,
8055628742583,0.18305969,0.46081543,13.024902,-0.29919434,-0.2050476,-0.5654144,14.079285,-19.29779,-48.254395,
8055633777984,-0.11691284,0.13632202,12.845627,-0.26493835,-0.16233826,-0.5787201,14.079285,-19.29779,-48.254395,
8055638813384,-0.31399536,-0.06402588,12.540482,-0.21868896,-0.11061096,-0.56573486,14.009094,-18.792725,-47.76306,
8055643848784,-0.47000122,-0.14497375,12.165466,-0.16468811,-0.053329468,-0.5298004,14.009094,-18.792725,-47.76306,
8055648884185,-0.5218048,-0.18009949,11.656189,-0.10787964,0.0019226074,-0.47721863,14.009094,-18.792725,-47.76306,
8055653919585,-0.44537354,-0.14299011,11.080566,-0.045425415,0.056121826,-0.40982056,14.009094,-18.792725,-47.76306,
8055658954985,-0.2535553,-0.03227234,10.44043,0.02130127,0.100616455,-0.33335876,13.789368,-19.230652,-48.831177,
8055663990386,0.04650879,0.19644165,9.677689,0.08744812,0.12773132,-0.2569275,13.789368,-19.230652,-48.831177,
8055669025786,0.37828064,0.5249176,8.897247,0.14956665,0.1412201,-0.18493652,13.789368,-19.230652,-48.831177,
8055674061187,0.6657562,0.81111145,8.223373,0.19902039,0.13894653,-0.12495422,13.789368,-19.230652,-48.831177,
8055679096587,0.88127136,1.0530548,7.6022644,0.23205566,0.12133789,-0.08482361,13.220215,-19.702148,-49.0036,
8055684131987,1.1299591,1.2476196,7.0572815,0.25013733,0.09240723,-0.06185913,13.220215,-19.702148,-49.0036,
8055689167388,1.345993,1.3778839,6.632492,0.24832153,0.059570313,-0.054611206,13.220215,-19.702148,-49.0036,
8055694202788,1.489624,1.5519409,6.267639,0.22645569,0.029937744,-0.058441162,13.220215,-19.702148,-49.0036,
8055699238189,1.5789185,1.6963959,6.059799,0.18276978,0.0047454834,-0.076431274,12.979126,-19.822693,-48.768616,
8055704273589,1.5950165,1.7929382,5.9795227,0.12339783,-0.015960693,-0.105911255,12.979126,-19.822693,-48.768616,
8055709308989,1.5638275,1.7632599,6.0129547,0.05505371,-0.031280518,-0.14219666,12.979126,-19.822693,-48.768616,
8055714344390,1.5038757,1.6903992,6.156357,-0.028747559,-0.039352417,-0.18519592,12.979126,-19.822693,-48.768616,
8055719379790,1.4383545,1.6046143,6.3023224,-0.11192322,-0.038497925,-0.22917175,13.708496,-19.822693,-48.53058,
8055724415191,1.3685455,1.5301514,6.554886,-0.1893158,-0.033477783,-0.26919556,13.708496,-19.822693,-48.53058,
8055729450591,1.3463135,1.4746246,6.924408,-0.25686646,-0.023223877,-0.3026123,13.708496,-19.822693,-48.53058,
8055734485991,1.3303375,1.3591461,7.168915,-0.3156891,-0.009307861,-0.33247375,13.708496,-19.822693,-48.53058,
8055739521392,1.2264862,1.1708374,7.5586243,-0.35580444,0.008728027,-0.35728455,14.009094,-20.069885,-48.43445,
8055744556792,1.059433,1.0589294,7.8328094,-0.38752747,0.034851074,-0.38104248,14.009094,-20.069885,-48.43445,
8055749592193,0.8783722,0.99583435,7.9982147,-0.40107727,0.07077026,-0.39764404,14.009094,-20.069885,-48.43445,
8055754627593,0.77212524,1.04216,8.145157,-0.40534973,0.11242676,-0.40519714,14.009094,-20.166016,-48.43445,
8055759662993,0.62734985,1.0358124,8.327652,-0.40498352,0.15713501,-0.40826416,14.009094,-20.166016,-48.43445,
8055764698394,0.5729065,0.9745941,8.535919,-0.3957367,0.2036438,-0.40698242,14.009094,-20.166016,-48.43445,
8055769733794,0.50027466,0.8991699,8.605667,-0.37922668,0.2421112,-0.40286255,14.009094,-20.166016,-48.43445,
8055774769194,0.46368408,0.8964081,8.601929,-0.33685303,0.2774048,-0.39323425,14.009094,-19.631958,-48.693848,
8055779804595,0.46759033,0.8945923,8.363403,-0.2848816,0.29988098,-0.3821411,14.009094,-19.631958,-48.693848,
8055784839995,0.5241394,0.9241638,8.238586,-0.22032166,0.30950928,-0.37028503,14.009094,-19.631958,-48.693848,
8055789875396,0.614563,1.0214233,7.9520874,-0.14234924,0.30296326,-0.35920715,14.009094,-19.631958,-48.693848,
8055794910796,0.7277527,1.1065216,7.619385,-0.055862427,0.27790833,-0.34753418,15.493774,-18.804932,-48.373413,
8055799946196,0.7821045,1.1899872,7.1947327,0.033096313,0.23649597,-0.33836365,15.493774,-18.804932,-48.373413,
8055804981597,0.7717438,1.2762146,6.693985,0.13311768,0.17185974,-0.33595276,15.493774,-18.804932,-48.373413,
8055810016997,0.7084503,1.302597,6.1822205,0.2210083,0.09976196,-0.33979797,15.493774,-18.804932,-48.373413,
8055815052398,0.5632477,1.2818298,5.781067,0.28707886,0.029953003,-0.35040283,15.896606,-18.621826,-48.2666,
8055820087798,0.45443726,1.2711029,5.59198,0.32374573,-0.028381348,-0.3605652,15.896606,-18.621826,-48.2666,
8055825123198,0.3933258,1.2349854,5.555664,0.32992554,-0.06652832,-0.3687744,15.896606,-18.621826,-48.2666,
8055830158599,0.33032227,1.2341461,5.7233276,0.3120575,-0.08407593,-0.37094116,15.896606,-18.621826,-48.2666,
8055835193999,0.22528076,1.2094574,5.9013977,0.27534485,-0.079452515,-0.37051392,15.603638,-18.914795,-48.2666,
8055840229400,0.10066223,1.1874695,5.9996643,0.2361908,-0.054275513,-0.36805725,15.603638,-18.914795,-48.2666,
8055845264800,-0.009307861,1.2107544,6.082962,0.20335388,-0.016342163,-0.3627472,15.603638,-18.914795,-48.2666,
8055850300200,-0.064834595,1.2254944,6.2248383,0.18205261,0.021026611,-0.3547058,15.603638,-18.914795,-48.2666,
8055855335601,-0.0980072,1.1976471,6.3384247,0.173172,0.05091858,-0.34420776,15.553284,-18.08319,-47.68982,
8055860371001,-0.17562866,1.2159424,6.494568,0.17601013,0.07661438,-0.33171082,15.553284,-18.08319,-47.68982,
8055865406401,-0.24137878,1.2565613,6.729706,0.18963623,0.10154724,-0.31755066,15.553284,-18.08319,-47.68982,
8055870441802,-0.30917358,1.2273407,6.9869843,0.20840454,0.12495422,-0.30155945,15.553284,-18.08319,-47.68982,
8055875477202,-0.33206177,1.1649475,7.1264496,0.23161316,0.14785767,-0.28225708,15.553284,-17.93518,-47.595215,
8055880512603,-0.3488617,1.1340332,7.0953674,0.26187134,0.1714325,-0.25958252,15.553284,-17.93518,-47.595215,
8055885548003,-0.36238098,1.182251,7.0700226,0.29832458,0.19119263,-0.23246765,15.553284,-17.93518,-47.595215,
8055890583403,-0.2944336,1.286499,7.0125732,0.34327698,0.19894409,-0.19950867,15.553284,-17.93518,-47.595215,
8055895618804,-0.21438599,1.3224182,6.925995,0.3921051,0.18959045,-0.16493225,15.867615,-18.881226,-48.825073,
8055900654204,-0.21151733,1.3248596,6.77861,0.44091797,0.17019653,-0.13182068,15.867615,-18.881226,-48.825073,
8055905689605,-0.21351624,1.3964844,6.5869904,0.48324585,0.14445496,-0.10050964,15.867615,-18.881226,-48.825073,
8055910725005,-0.10990906,1.4902802,6.447983,0.51708984,0.11628723,-0.07066345,15.867615,-18.881226,-48.825073,
8055915760405,0.021148682,1.6726532,6.5219727,0.5394287,0.087905884,-0.042007446,15.896606,-18.649292,-46.458435,
8055920795806,0.13685608,1.8538666,6.5274353,0.55104065,0.057052612,-0.013626099,15.896606,-18.649292,-46.458435,
8055925831206,0.2710266,2.0585632,6.6090546,0.55274963,0.028747559,0.007873535,15.896606,-18.649292,-46.458435,
8055930866607,0.3751526,2.1474915,6.6917267,0.5464783,0.0076446533,0.018615723,15.896606,-18.649292,-46.458435,
8055935902007,0.4827118,2.221405,7.044632,0.5277405,-0.003753662,0.0209198,15.896606,-18.621826,-46.255493,
8055940937407,0.52742004,2.3084106,7.3995056,0.49479675,-0.002243042,0.014465332,15.896606,-18.621826,-46.255493,
8055945972808,0.5950928,2.3030548,7.7323,0.45202637,0.015258789,0.0054779053,15.896606,-18.621826,-46.255493,
8055951008208,0.5066681,2.3128662,8.050262,0.40133667,0.048095703,-0.004928589,15.896606,-18.621826,-46.255493,
8055956043609,0.35058594,2.3694458,8.416443,0.3539276,0.08929443,-0.01789856,16.914368,-19.981384,-50.23346,
8055961079009,0.12394714,2.3419495,8.834946,0.30581665,0.13926697,-0.027893066,16.914368,-19.981384,-50.23346,
8055966114409,-0.13023376,2.3396454,9.227432,0.25901794,0.1925354,-0.03555298,16.914368,-19.981384,-50.23346,
8055971149810,-0.20698547,2.2448425,9.608917,0.25901794,0.1925354,-0.03555298,16.914368,-19.981384,-50.23346,
8055976185210,-0.3821411,2.1122284,9.974289,0.18312073,0.29148865,-0.028289795,16.075134,-19.483948,-47.781372,
8055981220610,-0.5396576,1.9894714,10.193192,0.15408325,0.3368683,-0.013702393,16.075134,-19.483948,-47.781372,
8055986256011,-0.6281738,1.9180298,10.571503,0.13522339,0.36886597,0.010360718,16.075134,-19.483948,-47.781372,
8055991291411,-0.65771484,2.0454865,10.898239,0.12748718,0.37773132,0.043701172,16.075134,-19.483948,-47.781372,
8055996326812,-0.51626587,2.1220703,11.127136,0.13742065,0.358963,0.081222534,16.075134,-19.483948,-47.781372,
8056001362212,-0.40881348,2.1974487,11.415787,0.16304016,0.30828857,0.12020874,16.075134,-19.483948,-47.781372,
8056006397612,-0.32347107,2.2518005,11.737305,0.19676208,0.23797607,0.15090942,16.075134,-19.483948,-47.781372,
8056011433013,-0.16003418,2.3201141,11.978165,0.23861694,0.14170837,0.18185425,16.099548,-19.52362,-47.76764,
8056016468413,0.023544312,2.3704987,12.363388,0.27096558,0.05078125,0.20397949,16.099548,-19.52362,-47.76764,
8056021503814,0.18632507,2.484558,12.725143,0.29170227,-0.026855469,0.22229004,16.099548,-19.52362,-47.76764,
8056026539214,0.2441101,2.573471,13.100739,0.29989624,-0.08708191,0.23468018,16.099548,-19.52362,-47.76764,
8056031574614,0.16622925,2.5622253,13.455551,0.29914856,-0.13208008,0.23942566,16.905212,-20.703125,-47.8714,
8056036610015,0.029663086,2.4618988,13.926773,0.29356384,-0.16651917,0.23701477,16.905212,-20.703125,-47.8714,
8056041645415,-0.024002075,2.346817,14.434708,0.28701782,-0.19198608,0.23582458,16.905212,-20.703125,-47.8714,
8056046680816,0.044937134,2.2420502,14.850937,0.2831726,-0.1974945,0.24241638,16.905212,-20.703125,-47.8714,
8056051716216,0.16168213,2.2161255,15.232025,0.28251648,-0.17481995,0.2570343,16.583252,-21.025085,-46.925354,
8056056751616,0.23498535,2.2029572,15.523285,0.28160095,-0.11891174,0.27694702,16.583252,-21.025085,-46.925354,
8056061787017,0.28837585,2.1979675,15.584335,0.28038025,-0.030761719,0.29632568,16.583252,-21.025085,-46.925354,
8056066822417,0.31913757,2.230072,15.383347,0.28129578,0.08943176,0.31271362,16.583252,-21.025085,-46.925354,
8056071857818,0.35131836,2.3168945,15.074524,0.28411865,0.24006653,0.32867432,16.564941,-21.118164,-46.798706,
8056076893218,0.4801178,2.4151306,14.627945,0.2879486,0.3889618,0.34228516,16.564941,-21.118164,-46.798706,
8056081928618,0.633255,2.475647,14.004715,0.29115295,0.5274811,0.35316467,16.564941,-21.118164,-46.798706,
8056086964019,0.7092285,2.5268707,13.249985,0.29455566,0.6462555,0.35873413,16.564941,-21.118164,-46.798706,
8056091999419,0.73550415,2.6030426,12.409454,0.29580688,0.7346344,0.35614014,16.30249,-22.036743,-45.81604,
8056097034819,0.7465515,2.7273407,11.577911,0.2884674,0.7955017,0.34701538,16.30249,-22.036743,-45.81604,
8056102070220,0.80218506,2.8598022,10.89917,0.26649475,0.82099915,0.3330078,16.30249,-22.036743,-45.81604,
8056107105620,0.8529968,3.0390778,10.404327,0.22990417,0.8070984,0.3148346,16.30249,-22.036743,-45.81604,
8056112141021,0.8726654,3.2007294,10.07579,0.18115234,0.7564392,0.28570557,15.553284,-23.085022,-46.255493,
8056117176421,0.8067169,3.2804565,9.869049,0.122665405,0.6737366,0.24049377,15.553284,-23.085022,-46.255493,
8056122211821,0.7281952,3.223465,9.812027,0.058120728,0.57366943,0.18702698,15.553284,-23.085022,-46.255493,
8056127247222,0.6248779,3.105774,9.8558655,-0.018508911,0.44891357,0.12362671,15.553284,-23.085022,-46.255493,
8056132282622,0.44361877,2.9310913,10.173187,-0.09939575,0.3179779,0.056900024,15.855408,-22.903442,-46.195984,
8056137318023,0.29273987,2.7152405,10.764084,-0.18457031,0.19302368,-0.007217407,15.855408,-22.903442,-46.195984,
8056142353423,0.20674133,2.5185394,11.5589905,-0.2781067,0.08786011,-0.06628418,15.855408,-22.903442,-46.195984,
8056147388823,0.06628418,2.269928,12.393127,-0.3746643,0.014755249,-0.11677551,15.855408,-22.903442,-46.195984,
8056152424224,-0.2467041,1.9819794,13.09375,-0.4593506,-0.022262573,-0.1613617,17.471313,-22.325134,-45.854187,
8056157459624,-0.6835327,1.7196198,13.707321,-0.54019165,-0.033309937,-0.20703125,17.471313,-22.325134,-45.854187,
8056162495025,-1.1164856,1.3509064,14.393417,-0.6005249,-0.02017212,-0.24221802,17.471313,-22.325134,-45.854187,
8056167530425,-1.5182953,1.0512085,14.943237,-0.63635254,0.0042266846,-0.26506042,17.471313,-22.325134,-45.854187,
8056172565825,-1.8642578,0.57676697,15.385178,-0.64959717,0.04182434,-0.2693634,18.299866,-23.428345,-45.585632,
8056177601226,-2.1895294,0.24316406,15.450699,-0.6351929,0.0967865,-0.2546997,18.299866,-23.428345,-45.585632,
8056182636626,-2.4328766,0.0099487305,15.172806,-0.60198975,0.164505,-0.22349548,18.299866,-23.428345,-45.585632,
8056187672026,-2.5327911,-0.0499115,14.727493,-0.54797363,0.25100708,-0.16960144,18.38379,-22.833252,-45.50171,
8056192707427,-2.4565735,-2.2888184E-4,14.137329,-0.48242188,0.3266449,-0.10328674,18.38379,-22.833252,-45.50171,
8056197742827,-2.4464417,0.03627014,13.5278015,-0.40567017,0.3738098,-0.033493042,18.38379,-22.833252,-45.50171,
8056202778228,-2.3168488,0.10151672,12.730484,-0.3131256,0.37971497,0.032836914,18.38379,-22.833252,-45.50171,
8056207813628,-2.1134796,0.09132385,11.928329,-0.20674133,0.34843445,0.09399414,18.50586,-20.79773,-45.736694,
8056212849028,-1.8556976,0.2532196,11.067337,-0.10610962,0.29562378,0.14653015,18.50586,-20.79773,-45.736694,
8056217884429,-1.6065216,0.48875427,10.383545,-0.004776001,0.21287537,0.19470215,18.50586,-20.79773,-45.736694,
8056222919829,-1.2577057,0.72566223,9.682297,0.07521057,0.11639404,0.22718811,18.50586,-20.79773,-45.736694,
8056227955230,-0.92607117,0.8943176,9.066269,0.14349365,0.009017944,0.24549866,18.128967,-20.166016,-47.0932,
8056232990630,-0.88578796,0.99279785,8.579025,0.19773865,-0.10379028,0.24516296,18.128967,-20.166016,-47.0932,
8056238026030,-1.0155945,1.0437775,8.193527,0.23600769,-0.21800232,0.22457886,18.128967,-20.166016,-47.0932,
8056243061431,-1.3405457,1.0354614,7.788788,0.26089478,-0.32766724,0.19644165,18.128967,-20.166016,-47.0932,
8056248096831,-1.7211151,0.8362274,7.359436,0.27497864,-0.4351654,0.16496277,18.128967,-19.839478,-46.56067,
8056253132232,-1.8181458,0.6520691,6.7977753,0.2720642,-0.5150757,0.14524841,18.128967,-19.839478,-46.56067,
8056258167632,-1.649704,0.60498047,6.532196,0.2454834,-0.5648804,0.14234924,18.128967,-19.839478,-46.56067,
8056263203032,-1.4893036,0.5784149,6.564987,0.18626404,-0.5839081,0.15080261,18.128967,-19.839478,-46.56067,
8056268238433,-1.4064178,0.5782623,6.7786713,0.100234985,-0.5794983,0.15914917,18.47229,-19.711304,-45.86487,
8056273273833,-1.3098907,0.5339813,7.073059,-0.0028076172,-0.5487976,0.16435242,18.47229,-19.711304,-45.86487,
8056278309234,-1.2042084,0.45700073,7.1989136,-0.11222839,-0.48916626,0.1687622,18.47229,-19.711304,-45.86487,
8056283344634,-1.0693207,0.391037,7.288147,-0.2053833,-0.41481018,0.17370605,18.47229,-19.711304,-45.86487,
8056288380034,-0.9448395,0.38409424,7.3704376,-0.28326416,-0.33488464,0.17648315,19.158936,-20.852661,-46.757507,
8056293415435,-0.89463806,0.44206238,7.5071716,-0.34432983,-0.26339722,0.17250061,19.158936,-20.852661,-46.757507,
8056298450835,-0.82910156,0.446167,7.755905,-0.385437,-0.21234131,0.16081238,19.158936,-20.852661,-46.757507,
8056303486235,-0.8075714,0.2965393,7.830658,-0.4028015,-0.17938232,0.14376831,19.158936,-20.852661,-46.757507,
8056308521636,-0.8923645,0.119262695,7.694275,-0.39027405,-0.15766907,0.12452698,18.492126,-21.51947,-46.366882,
8056313557036,-1.039917,0.021820068,7.466797,-0.35424805,-0.13508606,0.1118927,18.492126,-21.51947,-46.366882,
8056318592437,-1.1770935,-0.006668091,7.2879944,-0.30789185,-0.109313965,0.10864258,18.492126,-21.51947,-46.366882,
8056323627837,-1.1873627,0.017471313,7.1574554,-0.25912476,-0.08735657,0.11433411,18.492126,-21.51947,-46.366882,
8056328663237,-1.1709747,0.09164429,6.840317,-0.20689392,-0.07136536,0.12809753,17.718506,-21.740723,-45.481873,
8056333698638,-1.0628204,0.1867218,6.3727417,-0.14178467,-0.06010437,0.15037537,17.718506,-21.740723,-45.481873,
8056338734038,-0.907959,0.28186035,5.901169,-0.06956482,-0.06210327,0.1765747,17.718506,-21.740723,-45.481873,
8056343769439,-0.70339966,0.35650635,5.5874023,-0.001373291,-0.07434082,0.20202637,17.718506,-21.740723,-45.481873,
8056348804839,-0.5760956,0.47669983,5.2868958,0.057876587,-0.08773804,0.2238617,18.128967,-20.509338,-45.082092,
8056353840239,-0.49635315,0.5385742,4.891388,0.10444641,-0.09310913,0.23776245,18.128967,-20.509338,-45.082092,
8056358875640,-0.31254578,0.6773224,4.481186,0.13323975,-0.08303833,0.24743652,18.128967,-20.509338,-45.082092,
8056363911040,-0.07434082,0.8686371,4.1424103,0.14923096,-0.055648804,0.25680542,18.128967,-20.509338,-45.082092,
8056368946441,-0.11581421,0.9630432,3.7897797,0.14552307,-0.017333984,0.25912476,17.185974,-19.725037,-46.00067,
8056373981841,-0.2637329,0.9971161,3.3305206,0.123565674,0.031692505,0.253479,17.185974,-19.725037,-46.00067,
8056379017241,-0.17033386,1.0893097,3.1091766,0.08782959,0.08668518,0.24497986,17.185974,-19.725037,-46.00067,
8056384052642,0.018356323,1.2470245,3.2034302,0.038528442,0.13845825,0.2402649,17.185974,-19.725037,-46.00067,
8056389088042,0.34797668,1.4527893,3.0635834,-0.014312744,0.16726685,0.23617554,16.473389,-19.522095,-46.539307,
8056394123443,0.47364807,1.6996002,3.1017761,-0.068573,0.18495178,0.22833252,16.473389,-19.522095,-46.539307,
8056399158843,0.44989014,1.7277069,3.2016907,-0.113204956,0.19128418,0.20321655,16.473389,-19.522095,-46.539307,
8056404194243,0.2781372,1.7178802,3.4447021,-0.15470886,0.17623901,0.16239929,16.926575,-20.33844,-45.9198,
8056409229644,0.10774231,1.596756,3.6008759,-0.18785095,0.14466858,0.12034607,16.926575,-20.33844,-45.9198,
8056414265044,-0.11552429,1.511734,3.9459991,-0.21109009,0.11260986,0.08488464,16.926575,-20.33844,-45.9198,
8056419300444,-0.47042847,1.43927,4.424118,-0.22488403,0.07662964,0.056777954,16.926575,-20.33844,-45.9198,
8056424335845,-0.771225,1.2848358,4.88002,-0.22451782,0.023773193,0.038253784,16.835022,-20.791626,-46.53778,
8056429371245,-0.9735565,1.1335602,5.400528,-0.21191406,-0.02609253,0.03274536,16.835022,-20.791626,-46.53778,
8056434406646,-1.0096588,1.0335388,5.9543,-0.18791199,-0.07180786,0.041427612,16.835022,-20.791626,-46.53778,
8056439442046,-0.99064636,1.0205688,6.1832275,-0.15200806,-0.1085968,0.06222534,16.835022,-20.791626,-46.53778,
8056444477446,-0.8486786,1.0730743,6.4565887,-0.10713196,-0.13215637,0.0921936,17.033386,-20.733643,-46.458435,
8056449512847,-0.69506836,1.1169281,6.630127,-0.056121826,-0.14613342,0.12327576,17.033386,-20.733643,-46.458435,
8056454548247,-0.61735535,1.1234436,6.689743,0.0059051514,-0.1568451,0.15080261,17.033386,-20.733643,-46.458435,
8056459583648,-0.5583496,1.1719208,6.5920258,0.06355286,-0.1558075,0.17111206,17.033386,-20.733643,-46.458435,
8056464619048,-0.40272522,1.3696289,6.2445984,0.10942078,-0.13645935,0.18714905,17.269897,-20.33844,-45.9198,
8056469654448,-0.17451477,1.6456146,5.998886,0.13409424,-0.10083008,0.20132446,17.269897,-20.33844,-45.9198,
8056474689849,0.07608032,1.9481354,5.9562073,0.13070679,-0.05644226,0.20832825,17.269897,-20.33844,-45.9198,
8056479725249,0.34088135,2.1467133,5.98584,0.10083008,-0.015319824,0.20046997,17.269897,-20.33844,-45.9198,
8056484760650,0.57366943,2.2540894,6.2050323,0.047668457,0.02178955,0.17428589,16.860962,-19.93103,-46.318054,
8056489796050,0.64793396,2.31781,6.5653687,-0.013153076,0.052734375,0.13539124,16.860962,-19.93103,-46.318054,
8056494831450,0.52023315,2.2936249,7.064575,-0.0770874,0.07550049,0.08468628,16.860962,-19.93103,-46.318054,
8056499866851,0.30111694,2.2477264,7.642456,-0.13523865,0.08255005,0.025421143,16.860962,-19.93103,-46.318054,
8056504902251,0.004638672,2.1503754,8.132355,-0.17582703,0.07194519,-0.033218384,16.061401,-21.217346,-46.691895,
8056509937651,-0.3222351,1.9674988,8.494537,-0.1943512,0.043884277,-0.087905884,16.061401,-21.217346,-46.691895,
8056514973052,-0.57173157,1.763382,8.868851,-0.18998718,5.187988E-4,-0.1335907,16.061401,-21.217346,-46.691895,
8056520008452,-0.7931824,1.6165466,9.279129,-0.17253113,-0.050872803,-0.16156006,16.061401,-21.217346,-46.691895,
8056525043853,-1.0086212,1.510086,9.813293,-0.15437317,-0.106048584,-0.17524719,15.725708,-22.227478,-46.757507,
8056530079253,-1.1596985,1.4402008,10.224487,-0.13798523,-0.15908813,-0.17402649,15.725708,-22.227478,-46.757507,
8056535114653,-1.1584625,1.384613,10.598694,-0.1210022,-0.20315552,-0.15835571,15.725708,-22.227478,-46.757507,
8056540150054,-0.9692383,1.4548492,11.019012,-0.10069275,-0.24316406,-0.12988281,15.725708,-22.227478,-46.757507,
8056545185454,-0.64390564,1.6560516,11.492462,-0.08016968,-0.27897644,-0.0952301,15.609741,-21.426392,-47.314453,
8056550220855,-0.33143616,1.812149,12.142105,-0.062805176,-0.3151245,-0.06561279,15.609741,-21.426392,-47.314453,
8056555256255,-0.034622192,1.8751678,12.65654,-0.04321289,-0.34840393,-0.047714233,15.609741,-21.426392,-47.314453,
8056560291655,0.18927002,1.8073425,12.8832245,-0.025756836,-0.3637848,-0.0440979,15.609741,-21.426392,-47.314453,
8056565327056,0.26089478,1.7250977,12.878387,-0.013397217,-0.35139465,-0.05027771,15.6692505,-20.213318,-46.34857,
8056570362456,0.23069763,1.6873627,12.926331,-0.0152282715,-0.3086548,-0.064453125,15.6692505,-20.213318,-46.34857,
8056575397857,0.1934967,1.7515259,13.102951,-0.047683716,-0.24279785,-0.084472656,15.6692505,-20.213318,-46.34857,
8056580433257,0.27368164,1.8010406,13.500504,-0.10671997,-0.16053772,-0.10699463,15.6692505,-20.213318,-46.34857,
8056585468657,0.2836609,1.7827759,14.009476,-0.18418884,-0.07055664,-0.12808228,15.725708,-19.822693,-45.751953,
8056590504058,0.1774292,1.7496033,14.494034,-0.26409912,0.01260376,-0.15370178,15.725708,-19.822693,-45.751953,
8056595539458,-0.008102417,1.7757874,15.103668,-0.32763672,0.07910156,-0.18185425,15.725708,-19.822693,-45.751953,
8056600574859,-0.22875977,1.7339783,15.530273,-0.3781433,0.13710022,-0.21424866,15.725708,-19.822693,-45.751953,
8056605610259,-0.41764832,1.585907,15.862183,-0.39631653,0.1639862,-0.23883057,16.230774,-20.83435,-48.2193,
8056610645659,-0.5793762,1.3266449,15.934631,-0.37345886,0.15838623,-0.25335693,16.230774,-20.83435,-48.2193,
8056615681060,-0.638443,1.1297302,15.877869,-0.3140564,0.12420654,-0.25543213,16.230774,-20.83435,-48.2193,
8056620716460,-0.6542511,1.0033264,15.751465,-0.3140564,0.12420654,-0.25543213,16.230774,-20.83435,-48.2193,
8056625751860,-0.6839447,0.89250183,15.50444,-0.1394043,0.0052948,-0.22909546,15.258789,-19.789124,-47.97821,
8056630787261,-0.6458435,0.759079,15.128891,-0.04145813,-0.06599426,-0.19989014,15.258789,-19.789124,-47.97821,
8056635822661,-0.40971375,0.89878845,14.665924,0.041641235,-0.12937927,-0.16036987,15.258789,-19.789124,-47.97821,
8056640858062,-0.0042266846,1.1001129,14.015564,0.112594604,-0.1915741,-0.12062073,14.866638,-19.308472,-47.595215,
8056645893462,0.3973236,1.3583221,13.398071,0.16365051,-0.2518921,-0.08760071,14.866638,-19.308472,-47.595215,
8056650928862,0.83114624,1.6367493,12.991974,0.18388367,-0.30775452,-0.0690155,14.866638,-19.308472,-47.595215,
8056655964263,1.2351837,1.9511261,12.893143,0.17074585,-0.35868835,-0.07485962,14.866638,-19.308472,-47.595215,
8056660999663,1.4337463,2.0842743,12.942871,0.1174469,-0.4076538,-0.111587524,15.005493,-19.447327,-48.539734,
8056666035064,1.4552307,2.0234985,13.224091,0.039245605,-0.44673157,-0.17092896,15.005493,-19.447327,-48.539734,
8056671070464,1.350357,1.8940277,13.647583,-0.05543518,-0.4693451,-0.25273132,15.005493,-19.447327,-48.539734,
8056676105864,1.1789398,1.7369995,14.14241,-0.16119385,-0.46728516,-0.34458923,15.005493,-19.447327,-48.539734,
8056681141265,0.9268646,1.580246,14.601227,-0.27085876,-0.43559265,-0.43385315,16.296387,-19.621277,-48.35968,
8056686176665,0.5389252,1.2860107,15.092621,-0.37834167,-0.37841797,-0.51719666,16.296387,-19.621277,-48.35968,
8056691212066,0.04725647,0.8787384,15.529999,-0.48143005,-0.30473328,-0.5988159,16.296387,-19.621277,-48.35968,
8056696247466,-0.57829285,0.37423706,15.957596,-0.55610657,-0.2375946,-0.65974426,16.296387,-19.621277,-48.35968,
8056701282866,-1.23732,-0.12162781,16.369034,-0.6004791,-0.18330383,-0.6995697,16.583252,-19.651794,-48.2666,
8056706318267,-1.8148346,-0.5359192,16.723938,-0.6057434,-0.14820862,-0.7085571,16.583252,-19.651794,-48.2666,
8056711353667,-2.1936493,-0.93388367,16.959091,-0.57276917,-0.13294983,-0.6835785,16.583252,-19.651794,-48.2666,
8056716389068,-2.3482056,-1.1992188,16.920242,-0.5024719,-0.13298035,-0.6217804,16.583252,-19.651794,-48.2666,
8056721424468,-2.2640076,-1.2697449,16.559052,-0.39163208,-0.13807678,-0.52119446,15.3793335,-19.651794,-48.85254,
8056726459868,-1.9209595,-1.1711273,15.894226,-0.2611084,-0.14241028,-0.40222168,15.3793335,-19.651794,-48.85254,
8056731495269,-1.3869171,-0.9164429,14.874634,-0.11903381,-0.14276123,-0.27264404,15.3793335,-19.651794,-48.85254,
8056736530669,-0.82699585,-0.57902527,13.712875,0.020050049,-0.14057922,-0.14251709,15.3793335,-19.651794,-48.85254,
8056741566069,-0.26239014,-0.19932556,12.499466,0.13859558,-0.14202881,-0.03086853,14.906311,-17.530823,-47.75238,
8056746601470,0.20402527,0.110961914,11.316956,0.23709106,-0.15402222,0.06303406,14.906311,-17.530823,-47.75238,
8056751636870,0.6599121,0.3919983,10.349304,0.30387878,-0.17895508,0.13171387,14.906311,-17.530823,-47.75238,
8056756672271,1.1776123,0.6922455,9.678848,0.33421326,-0.21315002,0.17501831,14.906311,-17.530823,-47.75238,
8056761707671,1.5690613,0.91915894,9.191574,0.33276367,-0.2511139,0.19776917,14.866638,-17.248535,-47.595215,
8056766743071,1.8253937,1.0370789,8.708908,0.30732727,-0.27778625,0.19882202,14.866638,-17.248535,-47.595215,
8056771778472,2.0256042,1.1671448,8.343002,0.26914978,-0.29119873,0.18113708,14.866638,-17.248535,-47.595215,
8056776813872,2.1963806,1.3012543,8.216858,0.2136383,-0.29930115,0.14674377,14.866638,-17.248535,-47.595215,
8056781849273,2.2516174,1.3642578,8.243866,0.15370178,-0.30851746,0.10209656,16.166687,-17.575073,-48.864746,
8056786884673,2.1637573,1.3335571,8.242264,0.10031128,-0.31655884,0.050567627,16.166687,-17.575073,-48.864746,
8056791920073,2.0714264,1.2643127,8.1970215,0.053848267,-0.31359863,-0.007659912,16.166687,-17.575073,-48.864746,
8056796955474,1.9145966,1.228714,8.252396,0.012588501,-0.2934723,-0.06498718,16.166687,-17.575073,-48.864746,
8056801990874,1.776001,1.1782074,8.398773,-0.024627686,-0.2639618,-0.11413574,14.930725,-19.2276,-47.657776,
8056807026275,1.5311584,1.0822601,8.324921,-0.066101074,-0.21403503,-0.16731262,14.930725,-19.2276,-47.657776,
8056812061675,1.1338348,0.8706665,8.174973,-0.10479736,-0.14738464,-0.21406555,14.930725,-19.2276,-47.657776,
8056817097075,0.6870575,0.65008545,7.85968,-0.13595581,-0.073394775,-0.25186157,14.930725,-19.2276,-47.657776,
8056822132476,0.37150574,0.48049927,7.5709686,-0.16329956,-4.272461E-4,-0.27635193,14.866638,-19.308472,-47.595215,
8056827167876,0.11642456,0.4217987,7.4423065,-0.18638611,0.06008911,-0.28442383,14.866638,-19.308472,-47.595215,
8056832203276,-0.22358704,0.34046936,7.3897552,-0.20057678,0.09249878,-0.27833557,14.866638,-19.308472,-47.595215,
8056837238677,-0.44380188,0.23962402,7.167282,-0.19944763,0.10095215,-0.26402283,14.866638,-19.308472,-47.595215,
8056842274077,-0.58839417,0.16999817,7.07901,-0.17871094,0.080947876,-0.2358551,14.866638,-19.308472,-47.595215,
8056847309478,-0.56666565,0.1823883,7.031494,-0.14259338,0.03994751,-0.19566345,14.866638,-19.308472,-47.595215,
8056852344878,-0.5130615,0.19241333,6.942444,-0.09492493,-0.016921997,-0.14689636,14.866638,-19.308472,-47.595215,
8056857380278,-0.34977722,0.30526733,6.762665,-0.043289185,-0.07165527,-0.09364319,14.703369,-19.815063,-50.401306,
8056862415679,-0.035720825,0.4960022,6.5812683,0.0050354004,-0.11392212,-0.040649414,14.703369,-19.815063,-50.401306,
8056867451079,0.2947235,0.7297363,6.407669,0.05709839,-0.14888,0.010421753,14.703369,-19.815063,-50.401306,
8056872486480,0.55496216,0.9118042,6.208847,0.10223389,-0.17393494,0.048339844,14.703369,-19.815063,-50.401306,
8056877521880,0.6952057,1.0362549,5.973358,0.13867188,-0.1869049,0.069000244,15.209961,-19.308472,-47.93091,
8056882557280,0.8017731,1.1355743,5.64032,0.1651001,-0.18499756,0.07527161,15.209961,-19.308472,-47.93091,
8056887592681,0.8499298,1.1855774,5.320938,0.18005371,-0.17120361,0.07197571,15.209961,-19.308472,-47.93091,
8056892628081,0.87968445,1.2458801,4.976227,0.18585205,-0.14744568,0.061416626,15.209961,-19.308472,-47.93091,
8056897663482,0.91867065,1.2795715,4.8118134,0.18005371,-0.11668396,0.044326782,15.16571,-19.308472,-47.950745,
8056902698882,0.9091339,1.29776,4.825348,0.1621399,-0.08685303,0.022506714,15.16571,-19.308472,-47.950745,
8056907734282,0.9241791,1.3278809,4.928406,0.13198853,-0.051223755,-0.0011749268,15.16571,-19.308472,-47.950745,
8056912769683,0.9272766,1.3276062,5.0591125,0.09738159,-0.0073242188,-0.02331543,15.16571,-19.308472,-47.950745,
8056917805083,0.8265686,1.2999725,5.199402,0.06741333,0.04208374,-0.04472351,14.405823,-19.221497,-48.379517,
8056922840484,0.58418274,1.2400513,5.3615723,0.045455933,0.095962524,-0.06877136,14.405823,-19.221497,-48.379517,
8056927875884,0.33576965,1.1596527,5.4332275,0.03327942,0.15489197,-0.092559814,14.405823,-19.221497,-48.379517,
8056932911284,0.09992981,1.0769653,5.364868,0.034622192,0.20756531,-0.108078,14.405823,-19.221497,-48.379517,
8056937946685,-0.087402344,1.0006256,5.127838,0.04937744,0.25228882,-0.11405945,13.150024,-18.278503,-49.606323,
8056942982085,-0.24049377,0.91922,4.856613,0.073532104,0.28468323,-0.11001587,13.150024,-18.278503,-49.606323,
8056948017485,-0.31533813,0.87713623,4.6440735,0.10144043,0.30166626,-0.09719849,13.150024,-18.278503,-49.606323,
8056953052886,-0.30352783,0.9162445,4.4923706,0.13040161,0.30506897,-0.076171875,13.150024,-18.278503,-49.606323,
8056958088286,-0.2920227,0.9832001,4.359543,0.1541748,0.29588318,-0.048721313,13.218689,-18.164063,-49.35913,
8056963123687,-0.25784302,1.0583038,4.399353,0.16784668,0.27671814,-0.021606445,13.218689,-18.164063,-49.35913,
8056968159087,-0.14764404,1.1170349,4.58844,0.17350769,0.25382996,0.0038757324,13.218689,-18.164063,-49.35913,
8056973194487,-0.06542969,1.1541595,4.7646484,0.17533875,0.23088074,0.027572632,13.218689,-18.164063,-49.35913,
8056978229888,-0.08317566,1.1643829,4.9764404,0.1777649,0.20974731,0.045944214,13.902283,-17.710876,-47.891235,
8056983265288,-0.16368103,1.1388245,5.028824,0.18336487,0.19322205,0.06021118,13.902283,-17.710876,-47.891235,
8056988300689,-0.23500061,1.1523285,4.932312,0.19406128,0.17817688,0.07254028,13.902283,-17.710876,-47.891235,
8056993336089,-0.22720337,1.2360077,4.7676697,0.21022034,0.16531372,0.08622742,13.902283,-17.710876,-47.891235,
8056998371489,-0.19796753,1.3572083,4.6091766,0.22427368,0.15333557,0.101242065,15.209961,-19.308472,-48.60077,
8057003406890,-0.10348511,1.4972992,4.5942383,0.22610474,0.13522339,0.11567688,15.209961,-19.308472,-48.60077,
8057008442290,0.08189392,1.6722565,4.9752655,0.2158966,0.11413574,0.12742615,15.209961,-19.308472,-48.60077,
8057013477691,0.1894989,1.7325745,5.5512238,0.19396973,0.083724976,0.13183594,15.209961,-19.308472,-48.60077,
8057018513091,0.11160278,1.7135773,6.1026,0.16896057,0.051971436,0.13121033,14.99939,-19.239807,-48.60077,
8057023548491,-0.05050659,1.664566,6.418396,0.15252686,0.029922485,0.12527466,14.99939,-19.239807,-48.60077,
8057028583892,-0.18013,1.6520538,6.6838226,0.15013123,0.020080566,0.11869812,14.99939,-19.239807,-48.60077,
8057033619292,-0.33680725,1.5716553,6.8506317,0.15618896,0.020507813,0.119277954,14.99939,-19.239807,-48.60077,
8057038654693,-0.4497223,1.5445251,6.8854218,0.16325378,0.026382446,0.12709045,14.523315,-19.003296,-48.487854,
8057043690093,-0.49243164,1.5103607,7.0272827,0.16822815,0.03765869,0.1449585,14.523315,-19.003296,-48.487854,
8057048725493,-0.28953552,1.4856262,7.182541,0.16239929,0.05206299,0.17027283,14.523315,-19.003296,-48.487854,
8057053760894,-0.07299805,1.6413116,7.323868,0.14207458,0.073898315,0.20080566,15.725708,-19.136047,-48.098755,
8057058796294,0.20896912,1.7397766,7.5085144,0.10920715,0.09420776,0.2288208,15.725708,-19.136047,-48.098755,
8057063831694,0.36128235,1.8684387,7.686035,0.073028564,0.108428955,0.25154114,15.725708,-19.136047,-48.098755,
8057068867095,0.5690613,1.9270782,7.8970795,0.03605652,0.11099243,0.2601776,15.725708,-19.136047,-48.098755,
8057073902495,0.7588196,1.9726257,8.2365265,-0.0075531006,0.101135254,0.25590515,15.6311035,-19.88678,-47.82257,
8057078937896,0.8328552,1.9937134,8.484863,-0.04989624,0.080703735,0.24606323,15.6311035,-19.88678,-47.82257,
8057083973296,0.7417755,1.9147491,8.785919,-0.0904541,0.056106567,0.22958374,15.6311035,-19.88678,-47.82257,
8057089008696,0.6449127,1.7872925,9.245911,-0.13218689,0.029281616,0.20753479,15.6311035,-19.88678,-47.82257,
8057094044097,0.5490875,1.6695709,9.932816,-0.17835999,0.0046081543,0.18525696,15.231323,-21.131897,-47.33734,
8057099079497,0.55818176,1.6125336,10.7202,-0.2278595,-0.01335144,0.17210388,15.231323,-21.131897,-47.33734,
8057104114898,0.6326294,1.6522217,11.501434,-0.27687073,-0.027191162,0.17074585,15.231323,-21.131897,-47.33734,
8057109150298,0.7888489,1.7166901,12.193649,-0.30812073,-0.03277588,0.17712402,15.231323,-21.131897,-47.33734,
8057114185698,0.94540405,1.7440643,12.870102,-0.3191986,-0.03640747,0.18661499,14.866638,-19.308472,-47.93091,
8057119221099,1.0098114,1.7254944,13.4743805,-0.3098297,-0.041900635,0.19203186,14.866638,-19.308472,-47.93091,
8057124256499,1.0471344,1.6683044,13.963242,-0.28224182,-0.049728394,0.19447327,14.866638,-19.308472,-47.93091,
8057129291900,1.0883484,1.671341,14.258759,-0.24220276,-0.053771973,0.19667053,14.866638,-19.308472,-47.93091,
8057134327300,1.0909271,1.6775665,14.457855,-0.19581604,-0.044174194,0.20126343,14.74762,-19.544983,-48.275757,
8057139362700,1.0491943,1.694809,14.738556,-0.15866089,-0.023040771,0.20513916,14.74762,-19.544983,-48.275757,
8057144398101,1.0235443,1.7620087,14.923737,-0.13044739,0.010375977,0.20994568,14.74762,-19.544983,-48.275757,
8057149433501,1.1878815,1.8858948,15.034256,-0.11325073,0.058303833,0.2159729,14.74762,-19.544983,-48.275757,
8057154468901,1.4398041,2.0736847,15.09758,-0.107910156,0.11665344,0.21969604,13.964844,-19.810486,-48.391724,
8057159504302,1.4912109,2.2039795,14.956238,-0.11164856,0.18743896,0.21650696,13.964844,-19.810486,-48.391724,
8057164539702,1.3514862,2.1573334,14.826935,-0.12495422,0.27346802,0.2013855,13.964844,-19.810486,-48.391724,
8057169575103,1.1522675,2.0974274,14.684723,-0.14704895,0.36276245,0.17538452,13.964844,-19.810486,-48.391724,
8057174610503,0.970932,2.111374,14.416702,-0.17453003,0.44566345,0.14941406,12.979126,-19.47937,-47.428894,
8057179645903,0.86026,2.1661682,14.083359,-0.19953918,0.5161743,0.13122559,12.979126,-19.47937,-47.428894,
8057184681304,0.7024689,2.2217255,13.6410675,-0.21888733,0.5684662,0.117889404,12.979126,-19.47937,-47.428894,
8057189716704,0.4505005,2.253952,13.323013,-0.23855591,0.5986023,0.10449219,12.979126,-19.47937,-47.428894,
8057194752105,0.12586975,2.165863,13.191299,-0.2579193,0.5957947,0.09184265,14.044189,-19.551086,-47.636414,
8057199787505,-0.13645935,1.9977112,13.190491,-0.27571106,0.55940247,0.080596924,14.044189,-19.551086,-47.636414,
8057204822905,-0.27397156,1.8855591,13.333084,-0.29644775,0.4973755,0.07606506,14.044189,-19.551086,-47.636414,
8057209858306,-0.30973816,1.8746948,13.606659,-0.31419373,0.41540527,0.08052063,14.044189,-19.551086,-47.636414,
8057214893706,-0.30255127,1.8739319,14.116028,-0.32647705,0.3236847,0.08985901,15.257263,-19.50531,-48.217773,
8057219929107,-0.2796631,1.7805176,14.639587,-0.33468628,0.21998596,0.100372314,15.257263,-19.50531,-48.217773,
8057224964507,-0.21800232,1.6848602,15.172226,-0.33683777,0.12799072,0.10946655,15.257263,-19.50531,-48.217773,
8057229999907,-0.1627655,1.5566864,15.672165,-0.3314209,0.0513916,0.11543274,15.257263,-19.50531,-48.217773,
8057235035308,0.014755249,1.4638977,16.197754,-0.31729126,-0.012191772,0.12088013,14.866638,-19.308472,-48.60077,
8057240070708,0.11628723,1.383728,16.53769,-0.29612732,-0.06187439,0.12145996,14.866638,-19.308472,-48.60077,
8057245106109,0.23150635,1.2634735,16.73146,-0.26631165,-0.09112549,0.1186676,14.866638,-19.308472,-48.60077,
8057250141509,0.39701843,1.1070099,16.866287,-0.22737122,-0.09991455,0.10903931,14.866638,-19.308472,-48.60077,
8057255176909,0.542099,0.9980011,16.816284,-0.18922424,-0.080215454,0.09397888,15.696716,-19.308472,-48.60077,
8057260212310,0.47329712,0.88087463,16.609833,-0.15715027,-0.035232544,0.073150635,15.696716,-19.308472,-48.60077,
8057265247710,0.29393005,0.7336731,16.225433,-0.1235199,0.032730103,0.052383423,15.696716,-19.308472,-48.60077,
8057270283110,0.05015564,0.48764038,15.647568,-0.1235199,0.032730103,0.052383423,15.696716,-19.308472,-48.60077,
8057275318511,-0.28248596,0.22135925,14.949768,-0.06782532,0.19787598,0.0061035156,16.156006,-18.539429,-48.016357,
8057280353911,-0.51356506,0.076538086,14.381348,-0.047973633,0.28125,-0.007675171,16.156006,-18.539429,-48.016357,
8057285389312,-0.66722107,-0.055526733,13.806046,-0.030593872,0.3459015,-0.005508423,16.156006,-18.539429,-48.016357,
8057290424712,-0.7228241,-0.07814026,13.201599,-0.014190674,0.3922577,0.0055999756,15.725708,-17.762756,-47.428894,
8057295460112,-0.85990906,-0.10983276,12.630707,0.0026855469,0.41862488,0.024108887,15.725708,-17.762756,-47.428894,
8057300495513,-0.983551,-0.1124115,11.95108,0.023086548,0.42617798,0.0413208,15.725708,-17.762756,-47.428894,
8057305530913,-1.1221008,-0.13165283,11.256638,0.047042847,0.41607666,0.053115845,15.725708,-17.762756,-47.428894,
8057310566314,-1.2018738,-0.1729126,10.582565,0.07398987,0.38386536,0.06820679,15.438843,-17.478943,-47.706604,
8057315601714,-1.2837677,-0.2424469,9.978165,0.0987854,0.33491516,0.081832886,15.438843,-17.478943,-47.706604,
8057320637114,-1.3253784,-0.24075317,9.511063,0.11778259,0.26817322,0.0945282,15.438843,-17.478943,-47.706604,
8057325672515,-1.3086395,-0.22007751,9.118637,0.1299591,0.18562317,0.108688354,15.438843,-17.478943,-47.706604,
8057330707915,-1.2330017,-0.17338562,8.807968,0.13478088,0.09971619,0.12223816,16.569519,-18.026733,-47.740173,
8057335743316,-1.162323,-0.17353821,8.528809,0.1321106,0.020736694,0.13430786,16.569519,-18.026733,-47.740173,
8057340778716,-1.0466309,-0.14093018,8.405197,0.1219635,-0.05580139,0.14459229,16.569519,-18.026733,-47.740173,
8057345814116,-0.91867065,-0.056793213,8.484024,0.10404968,-0.12107849,0.15097046,16.569519,-18.026733,-47.740173,
8057350849517,-0.83436584,-0.03944397,8.565308,0.08308411,-0.17825317,0.15168762,17.61322,-18.621826,-47.595215,
8057355884917,-0.7680054,-0.07675171,8.482529,0.06530762,-0.22195435,0.1448822,17.61322,-18.621826,-47.595215,
8057360920318,-0.73036194,-0.09037781,8.299957,0.04862976,-0.24572754,0.13395691,17.61322,-18.621826,-47.595215,
8057365955718,-0.7025604,-0.11418152,8.204773,0.025238037,-0.2504425,0.12046814,17.61322,-18.621826,-47.595215,
8057370991118,-0.6838684,-0.13647461,8.155823,-0.0076904297,-0.23750305,0.10623169,17.506409,-18.728638,-47.070313,
8057376026519,-0.6928711,-0.1326294,8.14328,-0.045059204,-0.2160492,0.09251404,17.506409,-18.728638,-47.070313,
8057381061919,-0.74523926,-0.17666626,8.092453,-0.08262634,-0.1912384,0.07829285,17.506409,-18.728638,-47.070313,
8057386097319,-0.79060364,-0.27796936,8.032288,-0.115249634,-0.16461182,0.06295776,17.506409,-18.728638,-47.070313,
8057391132720,-0.85847473,-0.3288269,8.0252075,-0.14089966,-0.13546753,0.051498413,16.78772,-17.921448,-47.82257,
8057396168120,-0.9312439,-0.3430786,7.9378357,-0.15959167,-0.10395813,0.046463013,16.78772,-17.921448,-47.82257,
8057401203521,-0.9660187,-0.37322998,7.902176,-0.16929626,-0.07633972,0.050598145,16.78772,-17.921448,-47.82257,
8057406238921,-1.0021362,-0.40385437,7.7460785,-0.16481018,-0.054840088,0.06047058,16.78772,-17.921448,-47.82257,
8057411274321,-1.0225983,-0.41563416,7.506012,-0.14894104,-0.039016724,0.074401855,16.412354,-17.419434,-48.43445,
8057416309722,-1.0591583,-0.380188,7.1854095,-0.12332153,-0.02558899,0.09440613,16.412354,-17.419434,-48.43445,
8057421345122,-0.99705505,-0.31910706,6.857773,-0.09718323,-0.011672974,0.11807251,16.412354,-17.419434,-48.43445,
8057426380523,-0.8740845,-0.19615173,6.5915527,-0.07043457,0.006652832,0.15020752,16.412354,-17.419434,-48.43445,
8057431415923,-0.71984863,-0.07299805,6.292923,-0.045776367,0.020370483,0.18521118,16.412354,-17.897034,-48.20099,
8057436451323,-0.52441406,0.044509888,5.9669037,-0.020843506,0.026229858,0.21754456,16.412354,-17.897034,-48.20099,
8057441486724,-0.36779785,0.15744019,5.612564,0.008880615,0.025146484,0.2456665,16.412354,-17.897034,-48.20099,
8057446522124,-0.20495605,0.27815247,5.2279053,0.043273926,0.016418457,0.26835632,16.412354,-17.897034,-48.20099,
8057451557525,-0.060836792,0.4364624,4.727295,0.07421875,0.001876831,0.2852478,15.927124,-18.10608,-47.860718,
8057456592925,0.12321472,0.58888245,4.544388,0.101989746,-0.019317627,0.2978363,15.927124,-18.10608,-47.860718,
8057461628325,0.31448364,0.7085266,4.4338837,0.114212036,-0.039245605,0.3007965,15.927124,-18.10608,-47.860718,
8057466663726,0.43504333,0.8509674,4.3390045,0.115859985,-0.05697632,0.29466248,15.927124,-18.10608,-47.860718,
8057471699126,0.49803162,0.9645233,4.4171906,0.11375427,-0.0690918,0.28282166,15.725708,-18.10608,-47.76306,
8057476734526,0.51834106,1.0096741,4.690323,0.11375427,-0.0690918,0.28282166,15.725708,-18.10608,-47.76306,
8057481769927,0.4560547,1.0406494,4.9610596,0.11894226,-0.091156006,0.24717712,15.725708,-18.10608,-47.76306,
8057486805327,0.3171692,0.97042847,4.9263916,0.13096619,-0.09700012,0.22148132,15.461731,-18.894958,-46.992493,
8057491840728,0.15568542,0.8639984,4.709778,0.15029907,-0.079193115,0.19804382,15.461731,-18.894958,-46.992493,
8057496876128,0.029037476,0.8538971,4.562195,0.16442871,-0.045074463,0.18270874,15.461731,-18.894958,-46.992493,
8057501911528,0.030075073,0.898407,4.47316,0.16696167,-1.5258789E-4,0.1767273,15.461731,-18.894958,-46.992493,
8057506946929,0.013366699,0.8971863,4.511444,0.15629578,0.04626465,0.17549133,15.115356,-19.136047,-46.237183,
8057511982329,-0.08106995,0.9478302,4.5133667,0.1408844,0.089035034,0.17938232,15.115356,-19.136047,-46.237183,
8057517017730,-0.13330078,1.0200043,4.4597015,0.1254425,0.12901306,0.1819458,15.115356,-19.136047,-46.237183,
8057522053130,-0.12269592,1.121109,4.4024963,0.1159668,0.15463257,0.18522644,15.115356,-19.136047,-46.237183,
8057527088530,-0.029022217,1.2195435,4.3572693,0.1124115,0.1620636,0.18876648,15.0390625,-19.136047,-46.087646,
8057532123931,0.051956177,1.2941742,4.385788,0.112197876,0.15057373,0.19137573,15.0390625,-19.136047,-46.087646,
8057537159331,0.19284058,1.2949829,4.432007,0.11550903,0.124176025,0.1877594,15.0390625,-19.136047,-46.087646,
8057542194732,0.26124573,1.3054504,4.474121,0.12211609,0.09140015,0.17927551,15.0390625,-19.136047,-46.087646,
8057547230132,0.25390625,1.3493347,4.5785065,0.12908936,0.04725647,0.16549683,14.607239,-18.42041,-47.90802,
8057552265532,0.2004242,1.3251038,4.7326355,0.13111877,0.0035552979,0.14781189,14.607239,-18.42041,-47.90802,
8057557300933,0.12852478,1.26268,4.9952545,0.12432861,-0.03303528,0.12550354,14.607239,-18.42041,-47.90802,
8057562336333,0.0922699,1.2104492,5.384613,0.104766846,-0.05482483,0.10385132,14.607239,-18.42041,-47.90802,
8057567371734,0.05810547,1.2009277,5.927002,0.074798584,-0.06037903,0.08609009,14.378357,-19.00177,-46.99402,
8057572407134,0.012802124,1.2300873,6.5699005,0.040603638,-0.051818848,0.069488525,14.378357,-19.00177,-46.99402,
8057577442534,-0.04083252,1.2301788,7.104782,0.0115356445,-0.030044556,0.051757813,14.378357,-19.00177,-46.99402,
8057582477935,-0.16363525,1.1536713,7.5086365,-0.009811401,0.0022125244,0.034240723,14.378357,-19.00177,-46.99402,
8057587513335,-0.36450195,1.0751343,7.8210144,-0.023162842,0.044937134,0.01739502,14.352417,-19.136047,-46.757507,
8057592548735,-0.5590668,1.0549011,8.009567,-0.023223877,0.09010315,0.0068359375,14.352417,-19.136047,-46.757507,
8057597584136,-0.66664124,1.0969238,8.097336,-0.013366699,0.127594,0.003967285,14.352417,-19.136047,-46.757507,
8057602619536,-0.66807556,1.1551056,8.203293,0.005844116,0.15193176,0.0064086914,14.352417,-19.136047,-46.757507,
8057607654937,-0.60331726,1.21344,8.299988,0.028884888,0.15835571,0.01159668,15.751648,-20.22705,-47.51587,
8057612690337,-0.4710083,1.2967072,8.513763,0.043807983,0.15486145,0.018463135,15.751648,-20.22705,-47.51587,
8057617725737,-0.36486816,1.4182587,8.843231,0.046081543,0.1486969,0.023223877,15.751648,-20.22705,-47.51587,
8057622761138,-0.34342957,1.5386353,9.183044,0.034988403,0.14808655,0.020553589,15.751648,-20.22705,-47.51587,
8057627796538,-0.3639679,1.5640411,9.538956,0.0096588135,0.15661621,0.008895874,15.582275,-18.771362,-45.759583,
8057632831939,-0.3730011,1.5150757,10.056351,-0.03692627,0.18138123,-0.013061523,15.582275,-18.771362,-45.759583,
8057637867339,-0.38301086,1.3845215,10.767059,-0.09489441,0.21466064,-0.039138794,15.582275,-18.771362,-45.759583,
8057642902739,-0.4998932,1.3017273,11.389084,-0.1525116,0.24447632,-0.06211853,15.582275,-18.771362,-45.759583,
8057647938140,-0.65364075,1.2059937,12.007172,-0.19442749,0.2649994,-0.08479309,15.553284,-18.621826,-45.585632,
8057652973540,-0.844635,1.0081482,12.459412,-0.21388245,0.27105713,-0.102386475,15.553284,-18.621826,-45.585632,
8057658008941,-1.0381165,0.83813477,12.797089,-0.2068634,0.2586975,-0.11097717,15.553284,-18.621826,-45.585632,
8057663044341,-1.03302,0.78393555,12.931564,-0.1697998,0.21798706,-0.11151123,15.553284,-18.621826,-45.585632,
8057668079741,-0.9702606,0.7603302,13.0147705,-0.113342285,0.15138245,-0.10064697,15.216064,-21.644592,-47.87903,
8057673115142,-0.8637848,0.76582336,13.005981,-0.049316406,0.06338501,-0.081604004,15.216064,-21.644592,-47.87903,
8057678150542,-0.7049713,0.81051636,12.923599,0.016937256,-0.0340271,-0.06303406,15.216064,-21.644592,-47.87903,
8057683185943,-0.5640106,0.7982178,12.961487,0.07426453,-0.13252258,-0.047576904,15.216064,-21.644592,-47.87903,
8057688221343,-0.52227783,0.84236145,13.026306,0.11462402,-0.21099854,-0.03845215,15.042114,-20.870972,-46.125793,
8057693256743,-0.46891785,0.8497772,13.010468,0.13604736,-0.27824402,-0.034484863,15.042114,-20.870972,-46.125793,
8057698292144,-0.37182617,0.9552002,13.0946045,0.12940979,-0.309906,-0.03453064,15.042114,-20.870972,-46.125793,
8057703327544,-0.25134277,1.0586548,13.55658,0.09849548,-0.31762695,-0.035949707,15.042114,-20.870972,-46.125793,
8057708362944,-0.16400146,1.0764008,14.209473,0.050567627,-0.31163025,-0.041625977,15.042114,-20.870972,-46.125793,
8057713398345,-0.22473145,1.0608673,14.834335,0.007446289,-0.2995453,-0.049423218,15.042114,-20.870972,-46.125793,
8057718433745,-0.24606323,1.0251923,14.93248,-0.013793945,-0.27752686,-0.058288574,15.042114,-20.870972,-46.125793,
8057723469146,-0.107940674,1.0236816,14.729523,-1.5258789E-4,-0.24786377,-0.061706543,15.063477,-20.802307,-46.087646,
8057728504546,0.05281067,1.0492554,14.479309,0.036727905,-0.22645569,-0.056777954,15.063477,-20.802307,-46.087646,
8057733539946,0.29067993,1.1491394,14.172638,0.08062744,-0.21846008,-0.044296265,15.063477,-20.802307,-46.087646,
8057738575347,0.4784851,1.2125244,13.885605,0.11715698,-0.21687317,-0.030639648,15.063477,-20.802307,-46.087646,
8057743610747,0.76220703,1.3156433,13.711319,0.13795471,-0.2151947,-0.020889282,16.059875,-18.850708,-46.14258,
8057748646148,1.1308899,1.5072784,13.528763,0.14807129,-0.21835327,-0.019180298,16.059875,-18.850708,-46.14258,
8057753681548,1.4011078,1.6017914,13.3333435,0.1508789,-0.2208252,-0.027633667,16.059875,-18.850708,-46.14258,
8057758716948,1.6223602,1.6824951,13.112686,0.1446991,-0.2179718,-0.051986694,16.059875,-18.850708,-46.14258,
8057763752349,1.7814484,1.7763519,12.932816,0.13142395,-0.20884705,-0.0896759,15.896606,-19.995117,-47.261047,
8057768787749,1.8675232,1.868103,12.749359,0.10775757,-0.19741821,-0.14085388,15.896606,-19.995117,-47.261047,
8057773823150,1.824173,1.8755188,12.613312,0.07362366,-0.18081665,-0.20620728,15.896606,-19.995117,-47.261047,
8057778858550,1.63237,1.7103271,12.515945,0.028121948,-0.15934753,-0.28146362,15.896606,-19.995117,-47.261047,
8057783893950,1.3953705,1.5393829,12.532455,-0.031173706,-0.1349945,-0.36489868,15.830994,-19.963074,-47.291565,
8057788929351,1.1398926,1.3606415,12.591003,-0.09286499,-0.11242676,-0.4441223,15.830994,-19.963074,-47.291565,
8057793964751,0.8572998,1.1456451,12.6719055,-0.15415955,-0.09484863,-0.51652527,15.830994,-19.963074,-47.291565,
8057799000151,0.5362091,0.91711426,12.814819,-0.212677,-0.080078125,-0.58052063,15.830994,-19.963074,-47.291565,
8057804035552,0.21247864,0.6745148,13.0503845,-0.2619629,-0.06640625,-0.63505554,15.150452,-19.592285,-47.691345,
8057809070952,-0.08995056,0.40789795,13.363556,-0.30447388,-0.053878784,-0.6796417,15.150452,-19.592285,-47.691345,
8057814106353,-0.36317444,0.18980408,13.553345,-0.33906555,-0.042556763,-0.7086792,15.150452,-19.592285,-47.691345,
8057819141753,-0.5964966,-0.012954712,13.657944,-0.35942078,-0.0289917,-0.72291565,15.150452,-19.592285,-47.691345,
8057824177153,-0.8566284,-0.23306274,13.830887,-0.36340332,-0.015716553,-0.72525024,14.69574,-19.136047,-48.43445,
8057829212554,-1.1320953,-0.46632385,13.915512,-0.3534546,-0.0065460205,-0.7131958,14.69574,-19.136047,-48.43445,
8057834247954,-1.3776855,-0.66903687,13.874008,-0.32836914,0.0014343262,-0.6870117,14.69574,-19.136047,-48.43445,
8057839283355,-1.4533691,-0.86343384,13.720657,-0.28619385,0.013259888,-0.6404877,14.69574,-19.136047,-48.43445,
8057844318755,-1.3528748,-0.89889526,13.526962,-0.23147583,0.029006958,-0.57595825,14.950562,-19.052124,-48.294067,
8057849354155,-1.1540833,-0.81166077,13.17598,-0.17134094,0.04862976,-0.5008545,14.950562,-19.052124,-48.294067,
8057854389556,-0.8683014,-0.63375854,12.592789,-0.11087036,0.07772827,-0.42147827,14.950562,-19.052124,-48.294067,
8057859424956,-0.5489807,-0.44805908,11.936676,-0.053237915,0.11546326,-0.3467102,14.950562,-19.052124,-48.294067,
8057864460357,-0.16567993,-0.19264221,11.09285,-0.004638672,0.15412903,-0.28675842,15.922546,-18.621826,-47.47162,
8057869495757,0.1003418,0.017349243,10.185883,0.03804016,0.19213867,-0.2353363,15.922546,-18.621826,-47.47162,
8057874531157,0.28863525,0.1617279,9.344376,0.06567383,0.21551514,-0.20179749,15.922546,-18.621826,-47.47162,
8057879566558,0.44508362,0.20205688,8.643784,0.07652283,0.22102356,-0.18356323,15.922546,-18.621826,-47.47162,
8057884601958,0.47505188,0.23786926,8.024719,0.0715332,0.20957947,-0.17991638,14.523315,-18.621826,-46.925354,
8057889637359,0.36320496,0.27633667,7.738022,0.046966553,0.18249512,-0.18475342,14.523315,-18.621826,-46.925354,
8057894672759,0.3287964,0.24980164,7.541168,0.010940552,0.14727783,-0.19273376,14.523315,-18.621826,-46.925354,
8057899708159,0.2544098,0.23930359,7.6484985,-0.039749146,0.096710205,-0.19999695,14.76593,-18.704224,-46.766663,
8057904743560,0.21916199,0.17712402,7.950287,-0.083221436,0.042282104,-0.20326233,14.76593,-18.704224,-46.766663,
8057909778960,0.2164917,0.15124512,8.099533,-0.11898804,-0.015533447,-0.20526123,14.76593,-18.704224,-46.766663,
8057914814360,0.18511963,0.17292786,8.183365,-0.14459229,-0.06741333,-0.20184326,14.76593,-18.704224,-46.766663,
8057919849761,0.288208,0.14208984,8.306564,-0.15965271,-0.10813904,-0.19570923,15.814209,-18.530273,-46.510315,
8057924885161,0.36932373,0.21202087,8.551788,-0.171875,-0.13937378,-0.18255615,15.814209,-18.530273,-46.510315,
8057929920562,0.4718628,0.30148315,8.867004,-0.18565369,-0.16375732,-0.16993713,15.814209,-18.530273,-46.510315,
8057934955962,0.58750916,0.33724976,9.24321,-0.19593811,-0.17407227,-0.1605835,15.814209,-18.530273,-46.510315,
8057939991362,0.5563202,0.3452301,9.477051,-0.20115662,-0.16459656,-0.15422058,16.583252,-17.248535,-47.261047,
8057945026763,0.4733734,0.39320374,9.560471,-0.19815063,-0.13223267,-0.14898682,16.583252,-17.248535,-47.261047,
8057950062163,0.41506958,0.4220276,9.556793,-0.18714905,-0.081954956,-0.14422607,16.583252,-17.248535,-47.261047,
8057955097564,0.35372925,0.4240265,9.511978,-0.17424011,-0.02507019,-0.13754272,16.583252,-17.248535,-47.261047,
8057960132964,0.2850647,0.44407654,9.314743,-0.15132141,0.044769287,-0.12768555,16.215515,-17.407227,-47.3114,
8057965168364,0.18806458,0.45004272,8.994644,-0.12205505,0.11027527,-0.116104126,16.215515,-17.407227,-47.3114,
8057970203765,0.1508789,0.4776001,8.617676,-0.0871582,0.1711731,-0.10093689,16.215515,-17.407227,-47.3114,
8057975239165,0.17599487,0.5237427,8.092804,-0.049728394,0.2260437,-0.080581665,16.215515,-17.407227,-47.3114,
8057980274566,0.2548523,0.6225128,7.581299,-0.012069702,0.26927185,-0.05819702,15.214539,-18.263245,-47.590637,
8057985309966,0.36532593,0.78948975,6.9211273,0.02545166,0.29756165,-0.034835815,15.214539,-18.263245,-47.590637,
8057990345366,0.46650696,0.91796875,6.2695465,0.06484985,0.30677795,-0.013214111,15.214539,-18.263245,-47.590637,
8057995380767,0.489563,0.9593353,5.6236725,0.102371216,0.29153442,0.001739502,15.214539,-18.263245,-47.590637,
8058000416167,0.51049805,0.9807129,5.0915985,0.13653564,0.2566986,0.009628296,14.866638,-19.308472,-47.93091,
8058005451568,0.50561523,1.0167847,4.6792603,0.1620636,0.20986938,0.015106201,14.866638,-19.308472,-47.93091,
8058010486968,0.4811859,1.0547485,4.3434906,0.17393494,0.15881348,0.019866943,14.866638,-19.308472,-47.93091,
8058015522368,0.47410583,1.0785217,4.048294,0.17520142,0.10650635,0.024230957,14.866638,-19.308472,-47.93091,
8058020557769,0.52711487,1.1515808,3.853485,0.1688385,0.053100586,0.028762817,15.707397,-18.727112,-47.488403,
8058025593169,0.6604004,1.2232208,3.9027557,0.1594696,-6.713867E-4,0.03437805,15.707397,-18.727112,-47.488403,
8058030628569,0.7715759,1.3252716,4.008911,0.14767456,-0.054763794,0.039016724,15.707397,-18.727112,-47.488403,
8058035663970,0.81433105,1.4161835,4.0768433,0.13520813,-0.102371216,0.037612915,15.707397,-18.727112,-47.488403,
8058040699370,0.8483124,1.4551239,4.192581,0.12438965,-0.13633728,0.030212402,17.367554,-17.89856,-47.151184,
8058045734771,0.88835144,1.4586182,4.3749695,0.113967896,-0.15989685,0.0181427,17.367554,-17.89856,-47.151184,
8058050770171,0.86564636,1.5010376,4.5279694,0.104599,-0.17155457,0.0046691895,17.367554,-17.89856,-47.151184,
8058055805571,0.7959137,1.4989319,4.696808,0.09738159,-0.17230225,-0.0115356445,17.367554,-17.89856,-47.151184,
8058060840972,0.71250916,1.4612274,4.799469,0.092422485,-0.15509033,-0.029769897,17.785645,-18.10608,-47.76306,
8058065876372,0.61247253,1.3608093,4.818634,0.08642578,-0.11907959,-0.04508972,17.785645,-18.10608,-47.76306,
8058070911773,0.46928406,1.3887329,4.921921,0.07627869,-0.06976318,-0.05619812,17.785645,-18.10608,-47.76306,
8058075947173,0.31079102,1.378128,5.133423,0.06121826,-0.006652832,-0.063308716,17.785645,-18.10608,-47.76306,
8058080982573,0.104034424,1.2996063,5.265167,0.05104065,0.05218506,-0.06617737,17.55371,-18.183899,-47.83783,
8058086017974,-0.037322998,1.1614685,5.199188,0.05241394,0.098724365,-0.06468201,17.55371,-18.183899,-47.83783,
8058091053374,-0.14071655,1.1338196,4.886017,0.06982422,0.13320923,-0.05496216,17.55371,-18.183899,-47.83783,
8058096088775,-0.17442322,1.2230072,4.577957,0.09339905,0.16217041,-0.038208008,17.55371,-18.183899,-47.83783,
8058101124175,-0.08375549,1.4063873,4.3894653,0.10940552,0.17764282,-0.019119263,17.269897,-18.437195,-48.085022,
8058106159575,-0.07374573,1.5273895,4.4068146,0.11463928,0.18173218,0.0038909912,17.269897,-18.437195,-48.085022,
8058111194976,-0.021255493,1.63974,4.3574677,0.104400635,0.1714325,0.019622803,17.269897,-18.437195,-48.085022,
8058116230376,0.11529541,1.6704712,4.504654,0.08598328,0.15515137,0.02960205,17.269897,-18.621826,-48.2666,
8058121265776,0.15109253,1.7599335,4.6822205,0.06291199,0.13650513,0.031692505,17.269897,-18.621826,-48.2666,
8058126301177,0.17378235,1.8439331,4.8184357,0.06291199,0.13650513,0.031692505,17.269897,-18.621826,-48.2666,
8058131336577,0.045425415,1.8653717,5.054947,0.015609741,0.088027954,0.025360107,17.269897,-18.621826,-48.2666,
8058136371978,-0.028701782,1.8274689,5.2712097,-7.6293945E-5,0.04219055,0.01852417,16.912842,-18.266296,-48.2666,
8058141407378,-0.06614685,1.7546692,5.5480347,-0.0063934326,-0.014526367,0.014282227,16.912842,-18.266296,-48.2666,
8058146442778,-0.044128418,1.7687378,5.9037933,-0.010757446,-0.07810974,0.0119018555,16.912842,-18.266296,-48.2666,
8058151478179,0.07411194,1.82518,6.328491,-0.015975952,-0.1416626,0.01499939,16.912842,-18.266296,-48.2666,
8058156513579,0.15774536,1.8566589,6.8039703,-0.026260376,-0.19963074,0.016983032,16.127014,-18.026733,-48.176575,
8058161548980,0.24969482,1.9089813,7.3493347,-0.038909912,-0.24664307,0.017852783,16.127014,-18.026733,-48.176575,
8058166584380,0.263443,1.8869781,7.7808533,-0.053771973,-0.2850647,0.016845703,16.127014,-18.026733,-48.176575,
8058171619780,0.23583984,1.8611298,8.265884,-0.06718445,-0.30906677,0.011077881,16.127014,-18.026733,-48.176575,
8058176655181,0.23768616,1.8499298,8.755981,-0.082595825,-0.31544495,0.0030670166,15.725708,-18.10608,-48.098755,
8058181690581,0.2952423,1.8711548,9.287781,-0.102752686,-0.306427,4.4250488E-4,15.725708,-18.10608,-48.098755,
8058186725982,0.36679077,1.951004,9.915253,-0.12690735,-0.28575134,-9.460449E-4,15.725708,-18.10608,-48.098755,
8058191761382,0.41748047,2.0348816,10.609924,-0.15231323,-0.25276184,-0.0049591064,15.725708,-18.10608,-48.098755,
8058196796782,0.48225403,2.0197296,11.043045,-0.18032837,-0.19721985,-0.014953613,16.93573,-18.309021,-47.309875,
8058201832183,0.49971008,2.0018158,11.415009,-0.20811462,-0.1217041,-0.026748657,16.93573,-18.309021,-47.309875,
8058206867583,0.41348267,2.001236,11.782806,-0.2379303,-0.033233643,-0.040786743,16.93573,-18.309021,-47.309875,
8058211902984,0.2718048,1.9535522,12.089767,-0.27062988,0.054138184,-0.058502197,16.93573,-18.309021,-47.309875,
8058216938384,0.09899902,1.8600616,12.321548,-0.3010559,0.13038635,-0.07765198,16.755676,-17.626953,-47.36023,
8058221973784,-0.03074646,1.7315063,12.544952,-0.32966614,0.19555664,-0.09460449,16.755676,-17.626953,-47.36023,
8058227009185,-0.10765076,1.6624451,12.870956,-0.3604126,0.24487305,-0.10668945,16.755676,-17.626953,-47.36023,
8058232044585,-0.103881836,1.6782379,13.270172,-0.38938904,0.2677307,-0.11204529,16.755676,-17.626953,-47.36023,
8058237079985,-0.09448242,1.7147369,13.7491,-0.41175842,0.26423645,-0.11592102,16.06903,-17.07611,-47.76306,
8058242115386,-0.21720886,1.6745911,14.262329,-0.41799927,0.22587585,-0.120910645,16.06903,-17.07611,-47.76306,
8058247150786,-0.34146118,1.4864349,14.807526,-0.40197754,0.15480042,-0.12615967,16.06903,-17.07611,-47.76306,
8058252186187,-0.42207336,1.1994171,15.435211,-0.36265564,0.059692383,-0.13105774,16.06903,-17.07611,-47.76306,
8058257221587,-0.5456848,0.996933,16.080063,-0.3093109,-0.034622192,-0.12782288,15.841675,-17.755127,-48.423767,
8058262256987,-0.6002197,0.87405396,16.489426,-0.2509308,-0.09666443,-0.11431885,15.841675,-17.755127,-48.423767,
8058267292388,-0.5335388,0.80944824,16.673447,-0.19174194,-0.11338806,-0.08970642,15.841675,-17.755127,-48.423767,
8058272327788,-0.42739868,0.7606659,16.616531,-0.13505554,-0.082977295,-0.055862427,15.841675,-17.755127,-48.423767,
8058277363189,-0.22868347,0.8131561,16.33995,-0.088974,-0.018554688,-0.020965576,15.3793335,-17.303467,-48.880005,
8058282398589,-0.023391724,0.98399353,15.900513,-0.04862976,0.07485962,0.014343262,15.3793335,-17.303467,-48.880005,
8058287433989,0.13056946,1.1487274,15.332031,-0.023162842,0.17607117,0.040725708,15.3793335,-17.303467,-48.880005,
8058292469390,0.2796936,1.2359467,14.747894,-0.011657715,0.276886,0.05355835,15.3793335,-17.303467,-48.880005,
8058297504790,0.35006714,1.3173523,14.208496,-0.01828003,0.36535645,0.054336548,15.209961,-16.905212,-48.936462,
8058302540191,0.28433228,1.3416901,13.870926,-0.04020691,0.4313202,0.043029785,15.209961,-16.905212,-48.936462,
8058307575591,0.20013428,1.3920135,13.618423,-0.07066345,0.46842957,0.02722168,15.209961,-16.905212,-48.936462,
8058312610991,0.081344604,1.3612213,13.604767,-0.10928345,0.48225403,0.0039520264,15.209961,-16.905212,-48.936462,
8058317646392,-0.056671143,1.3015594,13.62355,-0.14775085,0.46902466,-0.020202637,15.458679,-16.656494,-47.958374,
8058322681792,-0.30386353,1.153595,13.546692,-0.18400574,0.43417358,-0.045303345,15.458679,-16.656494,-47.958374,
8058327717193,-0.5531616,0.94369507,13.436554,-0.21485901,0.38749695,-0.06732178,15.458679,-16.656494,-47.958374,
8058332752593,-0.73023987,0.7825012,13.493317,-0.21485901,0.38749695,-0.06732178,15.458679,-16.656494,-47.958374,
8058337787993,-0.92544556,0.6069641,13.722519,-0.2654724,0.26271057,-0.087631226,17.454529,-16.941833,-47.966003,
8058342823394,-1.0490875,0.35350037,14.1465,-0.29362488,0.17510986,-0.08615112,17.454529,-16.941833,-47.966003,
8058347858794,-1.1576843,0.13365173,14.775085,-0.3203888,0.09169006,-0.07368469,17.454529,-16.941833,-47.966003,
8058352894194,-1.2114258,-0.061523438,15.226913,-0.33828735,0.019851685,-0.055511475,18.128967,-17.07611,-48.098755,
8058357929595,-1.2566681,-0.21388245,15.496536,-0.33795166,-0.036819458,-0.031158447,18.128967,-17.07611,-48.098755,
8058362964995,-1.3391571,-0.37452698,15.587997,-0.31715393,-0.07621765,-0.0036315918,18.128967,-17.07611,-48.098755,
8058368000396,-1.4142151,-0.53663635,15.690598,-0.28175354,-0.10185242,0.025924683,18.128967,-17.07611,-48.098755,
8058373035796,-1.4070587,-0.63134766,15.834076,-0.23072815,-0.117004395,0.065826416,18.4021,-15.98053,-48.632813,
8058378071196,-1.3140411,-0.6956177,15.980835,-0.18249512,-0.11857605,0.10961914,18.4021,-15.98053,-48.632813,
8058383106597,-1.2214355,-0.7621002,15.821503,-0.12782288,-0.104385376,0.1542511,18.4021,-15.98053,-48.632813,
8058388141997,-1.1649475,-0.82839966,15.381073,-0.06866455,-0.06607056,0.19746399,18.4021,-15.98053,-48.632813,
8058393177398,-1.0802002,-0.77352905,14.751999,-0.007888794,-0.0077667236,0.2375946,18.19458,-16.25824,-48.498535,
8058398212798,-1.01297,-0.6801605,13.951828,0.049118042,0.0569458,0.2749176,18.19458,-16.25824,-48.498535,
8058403248198,-0.95072937,-0.5804596,13.096756,0.10029602,0.12857056,0.31201172,18.19458,-16.25824,-48.498535,
8058408283599,-0.89198303,-0.4909668,12.231522,0.13366699,0.1900177,0.33996582,18.19458,-16.25824,-48.498535,
8058413318999,-0.8344879,-0.45394897,11.35437,0.15823364,0.23822021,0.36044312,18.128967,-16.389465,-48.43445,
8058418354400,-0.74687195,-0.4316864,10.54393,0.17616272,0.26885986,0.37464905,18.128967,-16.389465,-48.43445,
8058423389800,-0.7087555,-0.4197235,9.859192,0.18444824,0.28074646,0.3840027,18.128967,-16.389465,-48.43445,
8058428425200,-0.72750854,-0.38389587,9.225128,0.18244934,0.27981567,0.38893127,18.128967,-16.389465,-48.43445,
8058433460601,-0.7377167,-0.3323059,8.6462555,0.17166138,0.26200867,0.3885498,17.829895,-15.196228,-48.14148,
8058438496001,-0.7406006,-0.29444885,8.159393,0.15855408,0.22764587,0.3868866,17.829895,-15.196228,-48.14148,
8058443531401,-0.7405548,-0.25326538,7.842041,0.14048767,0.18450928,0.38356018,17.829895,-15.196228,-48.14148,
8058448566802,-0.6813965,-0.22970581,7.6327057,0.11390686,0.13917542,0.3775177,17.829895,-15.196228,-48.14148,
8058453602202,-0.57933044,-0.20407104,7.521225,0.08065796,0.09397888,0.3717804,17.634583,-16.369629,-48.24524,
8058458637603,-0.49427795,-0.1927948,7.4531097,0.041381836,0.04786682,0.36627197,17.634583,-16.369629,-48.24524,
8058463673003,-0.46572876,-0.14071655,7.436432,0.0029296875,0.0020751953,0.35733032,17.634583,-16.369629,-48.24524,
8058468708403,-0.43395996,-0.12249756,7.428192,-0.029968262,-0.04133606,0.34368896,17.634583,-16.369629,-48.24524,
8058473743804,-0.41877747,-0.14694214,7.4800873,-0.06314087,-0.08047485,0.32409668,17.61322,-16.56189,-48.2666,
8058478779204,-0.46440125,-0.17866516,7.544464,-0.096328735,-0.11328125,0.30441284,17.61322,-16.56189,-48.2666,
8058483814605,-0.43023682,-0.17045593,7.623108,-0.12887573,-0.13526917,0.28677368,17.61322,-16.56189,-48.2666,
8058488850005,-0.3058777,-0.14056396,7.7192993,-0.16325378,-0.14863586,0.26922607,17.61322,-16.56189,-48.2666,
8058493885405,-0.17298889,-0.03677368,7.9025726,-0.19111633,-0.15464783,0.25326538,17.61322,-16.23993,-48.579407,
8058498920806,-0.13928223,0.04586792,7.987442,-0.21295166,-0.1565094,0.23458862,17.61322,-16.23993,-48.579407,
8058503956206,-0.14781189,0.025482178,8.109985,-0.22685242,-0.1532898,0.20884705,17.61322,-16.23993,-48.579407,
8058508991607,-0.2536316,0.024368286,8.045898,-0.231781,-0.1391449,0.17881775,17.61322,-16.23993,-48.579407,
8058514027007,-0.39201355,-0.06895447,7.8418884,-0.23486328,-0.1118927,0.15177917,15.989685,-16.54358,-48.916626,
8058519062407,-0.5057373,-0.10295105,7.75589,-0.23829651,-0.07496643,0.12661743,15.989685,-16.54358,-48.916626,
8058524097808,-0.7124481,-0.17337036,7.6944275,-0.24546814,-0.028869629,0.11013794,15.989685,-16.54358,-48.916626,
8058529133208,-0.89234924,-0.25979614,7.5551147,-0.2551117,0.017211914,0.099746704,15.989685,-16.54358,-48.916626,
8058534168609,-0.9896393,-0.24380493,7.3741913,-0.25784302,0.063934326,0.09902954,15.896606,-16.56189,-48.936462,
8058539204009,-1.0756226,-0.282547,7.305176,-0.2558899,0.11099243,0.11042786,15.896606,-16.56189,-48.936462,
8058544239409,-1.1013336,-0.19284058,7.1006317,-0.2460022,0.14678955,0.12944031,15.896606,-16.56189,-48.936462,
8058549274810,-1.0688019,-0.1754303,6.8901367,-0.22312927,0.1756134,0.15940857,15.896606,-16.56189,-48.936462,
8058554310210,-1.0649567,-0.14614868,6.629471,-0.18693542,0.18496704,0.18991089,15.896606,-16.56189,-48.936462,
8058559345610,-0.9292145,-0.111709595,6.3891754,-0.14276123,0.18218994,0.22166443,15.896606,-16.56189,-48.936462,
8058564381011,-0.8260803,-0.024642944,5.886093,-0.092300415,0.1699524,0.25349426,15.896606,-16.56189,-48.936462,
8058569416411,-0.69566345,0.03930664,5.2897186,-0.042160034,0.15562439,0.2858429,16.419983,-16.72821,-48.43445,
8058574451812,-0.54844666,0.15705872,4.893585,-0.0030059814,0.13977051,0.31414795,16.419983,-16.72821,-48.43445,
8058579487212,-0.46391296,0.27375793,4.5782623,0.02859497,0.111846924,0.3405609,16.419983,-16.72821,-48.43445,
8058584522612,-0.3140564,0.36242676,4.334152,0.049484253,0.07884216,0.3617401,16.419983,-16.72821,-48.43445,
8058589558013,-0.14628601,0.524704,4.194763,0.05947876,0.040008545,0.37802124,17.269897,-16.218567,-48.60077,
8058594593413,-0.002746582,0.65838623,4.158539,0.06535339,-0.0024108887,0.38841248,17.269897,-16.218567,-48.60077,
8058599628814,0.11277771,0.827713,4.291641,0.06681824,-0.041397095,0.3904419,17.269897,-16.218567,-48.60077,
8058604664214,0.16488647,0.86631775,4.571106,0.06285095,-0.07489014,0.38383484,17.269897,-16.218567,-48.60077,
8058609699614,0.04020691,0.86724854,4.7228394,0.058746338,-0.10032654,0.3685608,17.17987,-16.209412,-48.609924,
8058614735015,-0.08357239,0.82232666,4.763489,0.053619385,-0.11116028,0.34776306,17.17987,-16.209412,-48.609924,
8058619770415,-0.1859436,0.778656,4.7803955,0.051849365,-0.11003113,0.32919312,17.17987,-16.209412,-48.609924,
8058624805816,-0.23466492,0.7860565,4.7877045,0.055114746,-0.10456848,0.31697083,17.17987,-16.209412,-48.609924,
8058629841216,-0.34724426,0.7752228,4.8872986,0.057144165,-0.098098755,0.30926514,15.914917,-16.12854,-48.687744,
8058634876616,-0.48101807,0.7141266,5.0636444,0.05595398,-0.0887146,0.30439758,15.914917,-16.12854,-48.687744,
8058639912017,-0.53601074,0.6240845,5.3042755,0.053466797,-0.07774353,0.30445862,15.914917,-16.12854,-48.687744,
8058644947417,-0.54530334,0.52711487,5.6445313,0.054351807,-0.06788635,0.31072998,15.914917,-16.12854,-48.687744,
8058649982818,-0.51486206,0.59228516,5.851074,0.06340027,-0.05908203,0.3231964,18.128967,-17.07611,-47.76306,
8058655018218,-0.5235138,0.684021,6.009445,0.0836792,-0.052520752,0.34017944,18.128967,-17.07611,-47.76306,
8058660053618,-0.5375824,0.7453613,6.2914886,0.111083984,-0.048324585,0.35697937,18.128967,-17.07611,-47.76306,
8058665089019,-0.4764099,0.7703705,6.573654,0.14389038,-0.048965454,0.37002563,18.128967,-17.07611,-47.76306,
8058670124419,-0.37091064,0.784317,6.6936493,0.17703247,-0.04852295,0.37956238,17.819214,-16.989136,-47.84851,
8058675159819,-0.30593872,0.83529663,6.642685,0.20759583,-0.039001465,0.38894653,17.819214,-16.989136,-47.84851,
8058680195220,-0.23052979,0.90470886,6.5362396,0.23423767,-0.024536133,0.39746094,17.819214,-16.989136,-47.84851,
8058685230620,-0.054260254,1.0273132,6.4774475,0.25134277,-0.009902954,0.40023804,17.819214,-16.989136,-47.84851,
8058690266021,0.17967224,1.1873474,6.4385376,0.2571411,-0.0010528564,0.39756775,15.85083,-16.567993,-48.50769,
8058695301421,0.39997864,1.354065,6.4946136,0.2565155,-9.1552734E-5,0.38952637,15.85083,-16.567993,-48.50769,
8058700336821,0.42703247,1.4436646,6.696869,0.2511902,-0.0084991455,0.37097168,15.85083,-16.567993,-48.50769,
8058705372222,0.35255432,1.4863281,6.9548798,0.24302673,-0.029785156,0.3427124,15.85083,-16.567993,-48.50769,
8058710407622,0.2657013,1.4230652,7.1381073,0.23921204,-0.06565857,0.3087616,16.583252,-17.591858,-48.936462,
8058715443023,0.16841125,1.3500061,7.4558563,0.24040222,-0.10826111,0.27391052,16.583252,-17.591858,-48.936462,
8058720478423,-0.022079468,1.2127991,8.032532,0.2416687,-0.15605164,0.24084473,16.583252,-17.591858,-48.936462,
8058725513823,-0.2501526,1.1052551,8.7948,0.23927307,-0.21081543,0.20787048,16.583252,-17.591858,-48.936462,
8058730549224,-0.39065552,0.96751404,9.45314,0.22764587,-0.24650574,0.18327332,16.685486,-17.694092,-48.57025,
8058735584624,-0.4563446,0.99716187,9.799347,0.21736145,-0.25358582,0.17262268,16.685486,-17.694092,-48.57025,
8058740620025,-0.41062927,1.0771942,10.002762,0.20852661,-0.23649597,0.17166138,16.685486,-17.694092,-48.57025,
8058745655425,-0.2670288,1.1420593,10.335571,0.1967926,-0.2048645,0.17564392,16.685486,-17.694092,-48.57025,
8058750690825,-0.14949036,1.1983643,10.77623,0.17793274,-0.17320251,0.17784119,16.911316,-18.069458,-47.421265,
8058755726226,-0.07373047,1.2420349,11.173569,0.15789795,-0.13920593,0.17597961,16.911316,-18.069458,-47.421265,
8058760761626,-0.08860779,1.2095337,11.359268,0.13713074,-0.105285645,0.16947937,16.911316,-18.069458,-47.421265,
8058765797026,-0.032470703,1.0810547,11.714233,0.11853027,-0.07501221,0.15959167,16.23993,-17.93518,-48.60077,
8058770832427,0.031433105,1.0900269,12.142029,0.100128174,-0.057357788,0.14849854,16.23993,-17.93518,-48.60077,
8058775867827,0.1026001,1.0283203,12.643097,0.08432007,-0.057373047,0.1334076,16.23993,-17.93518,-48.60077,
8058780903228,0.22888184,1.0390625,13.123856,0.07632446,-0.071640015,0.1211853,16.23993,-17.93518,-48.60077,
8058785938628,0.28788757,1.0052338,13.463318,0.075149536,-0.09036255,0.10507202,15.8706665,-17.93518,-48.690796,
8058790974028,0.3237152,1.0448151,13.725708,0.08354187,-0.107177734,0.08451843,15.8706665,-17.93518,-48.690796,
8058796009429,0.30101013,1.0762329,13.881348,0.09710693,-0.1262207,0.06399536,15.8706665,-17.93518,-48.690796,
8058801044829,0.29431152,1.1227875,13.950485,0.11091614,-0.14105225,0.0398407,15.8706665,-17.93518,-48.690796,
8058806080230,0.22589111,1.1642303,14.054367,0.11672974,-0.1535492,0.014846802,15.307617,-17.788696,-48.695374,
8058811115630,0.050460815,1.0913086,14.203415,0.114212036,-0.16282654,-0.010482788,15.307617,-17.788696,-48.695374,
8058816151030,-0.11001587,1.0337524,14.283966,0.104034424,-0.16775513,-0.040374756,15.307617,-17.788696,-48.695374,
8058821186431,-0.14683533,0.9095764,14.377609,0.09590149,-0.17352295,-0.06437683,15.307617,-17.788696,-48.695374,
8058826221831,-0.048339844,0.8107605,14.383957,0.09033203,-0.1797638,-0.07572937,16.412354,-17.419434,-48.098755,
8058831257232,0.15811157,0.7780609,14.279419,0.087402344,-0.18486023,-0.07684326,16.412354,-17.419434,-48.098755,
8058836292632,0.38052368,0.76701355,14.114761,0.083862305,-0.18771362,-0.07507324,16.412354,-17.419434,-48.098755,
8058841328032,0.64590454,0.7369385,13.87616,0.07745361,-0.18630981,-0.0725708,16.412354,-17.419434,-48.098755,
8058846363433,0.86763,0.7226105,13.57428,0.067977905,-0.18086243,-0.07531738,15.94696,-17.884827,-47.8714,
8058851398833,1.0749664,0.752594,13.192108,0.051651,-0.17384338,-0.08634949,15.94696,-17.884827,-47.8714,
8058856434234,1.2324982,0.7922516,12.865829,0.02609253,-0.16474915,-0.104400635,15.94696,-17.884827,-47.8714,
8058861469634,1.3869781,0.8314514,12.687134,-0.01159668,-0.15333557,-0.1318512,15.94696,-17.884827,-47.8714,
8058866505034,1.4428558,0.8620148,12.686356,-0.06222534,-0.1441803,-0.16841125,14.854431,-18.611145,-48.083496,
8058871540435,1.3926544,0.8937378,12.8103485,-0.12579346,-0.13867188,-0.21813965,14.854431,-18.611145,-48.083496,
8058876575835,1.2896118,0.90219116,12.919403,-0.19334412,-0.13296509,-0.27952576,14.854431,-18.611145,-48.083496,
8058881611235,1.1553345,0.91656494,13.028,-0.25505066,-0.1282196,-0.34268188,14.854431,-18.611145,-48.083496,
8058886646636,0.91215515,0.88391113,13.115051,-0.3116455,-0.1255951,-0.4098816,14.523315,-18.278503,-49.272156,
8058891682036,0.56552124,0.7161255,13.327042,-0.36572266,-0.1227417,-0.48188782,14.523315,-18.278503,-49.272156,
8058896717437,0.12600708,0.3881073,13.744019,-0.4164734,-0.11959839,-0.548996,14.523315,-18.278503,-49.272156,
8058901752837,-0.28997803,0.061904907,14.237732,-0.46520996,-0.11897278,-0.6099243,14.523315,-18.278503,-49.272156,
8058906788237,-0.7102661,-0.25405884,14.612534,-0.49803162,-0.11935425,-0.6520996,14.523315,-18.559265,-48.451233,
8058911823638,-1.1040192,-0.5171051,14.978851,-0.50575256,-0.11709595,-0.6700897,14.523315,-18.559265,-48.451233,
8058916859038,-1.3686371,-0.71681213,15.37265,-0.48776245,-0.1161499,-0.66459656,14.523315,-18.559265,-48.451233,
8058921894439,-1.583252,-0.89105225,15.546448,-0.4433899,-0.11936951,-0.6349182,14.523315,-18.559265,-48.451233,
8058926929839,-1.6110382,-1.0097504,15.303268,-0.37696838,-0.12120056,-0.586853,15.032959,-18.164063,-47.473145,
8058931965239,-1.4917145,-1.050293,14.819626,-0.27990723,-0.11647034,-0.5172272,15.032959,-18.164063,-47.473145,
8058937000640,-1.19104,-0.96369934,14.093445,-0.1734314,-0.10803223,-0.43260193,15.032959,-18.164063,-47.473145,
8058942036040,-0.79022217,-0.7281189,13.2769165,-0.066345215,-0.098358154,-0.33976746,15.032959,-18.164063,-47.473145,
8058947071441,-0.28427124,-0.42715454,12.309738,0.03199768,-0.0960083,-0.24891663,15.725708,-17.07611,-47.76306,
8058952106841,0.19850159,-0.0897522,11.347458,0.11883545,-0.10542297,-0.16864014,15.725708,-17.07611,-47.76306,
8058957142241,0.6691742,0.11050415,10.252533,0.18304443,-0.1174469,-0.11326599,15.725708,-17.07611,-47.76306,
8058962177642,1.0596924,0.43501282,9.497131,0.23065186,-0.13430786,-0.07707214,15.725708,-17.07611,-47.76306,
8058967213042,1.5203552,0.6563873,8.854614,0.24365234,-0.15184021,-0.066833496,14.738464,-16.418457,-48.083496,
8058972248443,1.8715057,0.88464355,8.445328,0.22296143,-0.16197205,-0.07601929,14.738464,-16.418457,-48.083496,
8058977283843,2.092102,1.0328217,8.31218,0.17269897,-0.15971375,-0.10446167,14.738464,-16.418457,-48.083496,
8058982319243,2.1462708,1.03508,8.206085,0.17269897,-0.15971375,-0.10446167,14.738464,-16.418457,-48.083496,
8058987354644,2.0520782,0.86276245,8.157394,0.024353027,-0.105041504,-0.20755005,13.919067,-16.296387,-48.68164,
8058992390044,1.7924805,0.5455475,7.93692,-0.068984985,-0.04788208,-0.28266907,13.919067,-16.296387,-48.68164,
8058997425444,1.4624176,0.25611877,7.894394,-0.15814209,0.013946533,-0.34902954,13.919067,-16.296387,-48.68164,
8059002460845,1.1084747,0.0154418945,7.7769012,-0.24536133,0.07299805,-0.40327454,14.179993,-16.905212,-48.936462,
8059007496245,0.8552246,-0.066711426,7.748947,-0.32122803,0.121780396,-0.43666077,14.179993,-16.905212,-48.936462,
8059012531646,0.6867523,-0.11651611,7.726288,-0.38536072,0.1522522,-0.45211792,14.179993,-16.905212,-48.936462,
8059017567046,0.6017761,-0.12675476,7.9009094,-0.4303894,0.15826416,-0.45082092,14.179993,-16.905212,-48.936462,
8059022602446,0.5257721,-0.1353302,8.188263,-0.4651947,0.14538574,-0.43963623,14.556885,-17.47284,-48.75183,
8059027637847,0.41752625,-0.20819092,8.421295,-0.48065186,0.11727905,-0.42596436,14.556885,-17.47284,-48.75183,
8059032673247,0.30513,-0.29562378,8.5312805,-0.4784851,0.079833984,-0.40979004,14.556885,-17.47284,-48.75183,
8059037708648,0.23295593,-0.3527832,8.571625,-0.46058655,0.04324341,-0.39001465,14.556885,-17.47284,-48.75183,
8059042744048,0.1691742,-0.3514862,8.466858,-0.43411255,0.014892578,-0.36468506,15.542603,-17.259216,-49.261475,
8059047779448,0.18130493,-0.2646942,8.456512,-0.40986633,1.0681152E-4,-0.33161926,15.542603,-17.259216,-49.261475,
8059052814849,0.25045776,-0.09371948,8.505539,-0.39001465,-0.0017700195,-0.29177856,15.542603,-17.259216,-49.261475,
8059057850249,0.35087585,0.059310913,8.491287,-0.37606812,0.0052337646,-0.2536621,15.542603,-17.259216,-49.261475,
8059062885650,0.3909607,0.15437317,8.398621,-0.35894775,0.02015686,-0.22059631,16.06903,-16.732788,-49.77417,
8059067921050,0.4373932,0.2631073,8.21521,-0.33839417,0.03993225,-0.19363403,16.06903,-16.732788,-49.77417,
8059072956450,0.5611572,0.43014526,8.006638,-0.31581116,0.06037903,-0.17106628,16.06903,-16.732788,-49.77417,
8059077991851,0.7760925,0.6402283,7.7274933,-0.29039,0.07644653,-0.15376282,16.06903,-16.732788,-49.77417,
8059083027251,0.8924713,0.7962494,7.3840637,-0.2625122,0.08467102,-0.14227295,15.32135,-16.41388,-49.668884,
8059088062651,0.8734894,0.8661194,7.0676575,-0.2322998,0.081726074,-0.13922119,15.32135,-16.41388,-49.668884,
8059093098052,0.7738495,0.8069916,6.7826843,-0.19837952,0.06756592,-0.14614868,15.32135,-16.41388,-49.668884,
8059098133452,0.61927795,0.7531433,6.5433044,-0.16529846,0.044204712,-0.15644836,15.32135,-16.41388,-49.668884,
8059103168853,0.4613037,0.7248993,6.279022,-0.13851929,0.02027893,-0.16349792,15.299988,-15.5685425,-49.18213,
8059108204253,0.25125122,0.6759033,6.0731506,-0.11558533,-0.0015563965,-0.16648865,15.299988,-15.5685425,-49.18213,
8059113239653,-0.0043640137,0.6100464,6.039795,-0.0990448,-0.022506714,-0.1627655,15.299988,-15.5685425,-49.18213,
8059118275054,-0.21575928,0.46972656,6.042557,-0.09020996,-0.044052124,-0.15187073,15.299988,-15.5685425,-49.18213,
8059123310454,-0.3479004,0.36405945,6.0165405,-0.08216858,-0.06590271,-0.13204956,15.553284,-15.188599,-48.936462,
8059128345855,-0.39141846,0.35061646,6.000519,-0.07116699,-0.08230591,-0.10232544,15.553284,-15.188599,-48.936462,
8059133381255,-0.39204407,0.36320496,6.073807,-0.057540894,-0.09140015,-0.06530762,15.553284,-15.188599,-48.936462,
8059138416655,-0.37332153,0.42443848,6.203186,-0.042541504,-0.09611511,-0.018417358,15.553284,-15.188599,-48.936462,
8059143452056,-0.3339386,0.51556396,6.2714996,-0.020462036,-0.09777832,0.029525757,16.264343,-14.001465,-49.398804,
8059148487456,-0.3100891,0.5844269,6.26297,0.013183594,-0.0962677,0.07485962,16.264343,-14.001465,-49.398804,
8059153522857,-0.21508789,0.6335144,6.1390076,0.057128906,-0.090530396,0.119506836,16.264343,-14.001465,-49.398804,
8059158558257,-0.08842468,0.7103119,6.1033173,0.11038208,-0.08580017,0.16159058,16.264343,-14.001465,-49.398804,
8059163593657,0.053634644,0.8155823,6.0292664,0.1653595,-0.08605957,0.19895935,14.89563,-14.43634,-49.606323,
8059168629058,0.18878174,0.9919739,5.8661194,0.22756958,-0.08720398,0.23658752,14.89563,-14.43634,-49.606323,
8059173664458,0.33433533,1.1908722,5.686249,0.282135,-0.082336426,0.26589966,14.89563,-14.43634,-49.606323,
8059178699859,0.5077057,1.3061523,5.4092865,0.3276062,-0.06869507,0.28619385,14.89563,-14.43634,-49.606323,
8059183735259,0.63890076,1.4898987,5.099167,0.36387634,-0.049346924,0.29640198,14.179993,-14.845276,-49.606323,
8059188770659,0.7425842,1.6509705,4.8253784,0.38690186,-0.029876709,0.29769897,14.179993,-14.845276,-49.606323,
8059193806060,0.96762085,1.8352203,4.616226,0.39634705,-0.012329102,0.29159546,14.179993,-14.845276,-49.606323,
8059198841460,1.0350342,1.9385681,4.606247,0.38832092,0.0049591064,0.27726746,14.311218,-15.237427,-48.968506,
8059203876860,1.0537872,2.0290527,4.662781,0.3672638,0.013458252,0.25178528,14.311218,-15.237427,-48.968506,
8059208912261,0.9854431,2.0984192,4.736664,0.34075928,0.018218994,0.2194519,14.311218,-15.237427,-48.968506,
8059213947661,0.8387146,2.0188751,4.813553,0.31391907,0.015411377,0.18353271,14.311218,-15.237427,-48.968506,
8059218983062,0.67866516,1.8700104,5.199005,0.2903595,0.0066986084,0.14834595,14.74762,-15.2282715,-49.15619,
8059224018462,0.4065857,1.7248383,5.582306,0.2702179,-0.00932312,0.11935425,14.74762,-15.2282715,-49.15619,
8059229053862,0.15896606,1.6032257,5.989929,0.25234985,-0.033218384,0.096450806,14.74762,-15.2282715,-49.15619,
8059234089263,-0.087677,1.5379639,6.4254303,0.2396698,-0.052017212,0.08493042,14.74762,-15.2282715,-49.15619,
8059239124663,-0.17333984,1.5051727,6.8527985,0.23074341,-0.06607056,0.08659363,14.866638,-15.188599,-49.272156,
8059244160064,-0.13075256,1.5162048,7.2231293,0.22991943,-0.076690674,0.09965515,14.866638,-15.188599,-49.272156,
8059249195464,-0.094696045,1.6056213,7.470642,0.23536682,-0.08874512,0.11871338,14.866638,-15.188599,-49.272156,
8059254230864,0.06817627,1.732544,7.693512,0.24749756,-0.09799194,0.13798523,14.866638,-15.188599,-49.272156,
8059259266265,0.23117065,1.8722992,7.9363556,0.2617798,-0.109298706,0.16159058,15.435791,-15.473938,-48.15674,
8059264301665,0.36808777,2.0094604,8.301529,0.2696991,-0.12571716,0.17678833,15.435791,-15.473938,-48.15674,
8059269337066,0.45988464,2.1080017,8.782227,0.2684784,-0.14717102,0.1819458,15.435791,-15.473938,-48.15674,
8059274372466,0.4925995,2.1194763,9.316849,0.2660675,-0.17462158,0.17745972,15.435791,-15.473938,-48.15674,
8059279407866,0.4546051,2.0168,9.870132,0.2662506,-0.20285034,0.16749573,14.401245,-16.972351,-48.773193,
8059284443267,0.37109375,1.9176483,10.311844,0.27262878,-0.23033142,0.15548706,14.401245,-16.972351,-48.773193,
8059289478667,0.2993164,1.8289337,10.618118,0.28982544,-0.25541687,0.14361572,14.401245,-16.972351,-48.773193,
8059294514068,0.2419281,1.7585297,10.979141,0.31010437,-0.26831055,0.13858032,14.401245,-16.972351,-48.773193,
8059299549468,0.29066467,1.7451782,11.423935,0.32650757,-0.27268982,0.14024353,14.179993,-17.248535,-48.936462,
8059304584868,0.42930603,1.7733154,11.85228,0.33616638,-0.27308655,0.14628601,14.179993,-17.248535,-48.936462,
8059309620269,0.5649414,1.8236237,12.149933,0.34358215,-0.26707458,0.15315247,14.179993,-17.248535,-48.936462,
