timestamp,accel_x,accel_y,accel_z,gyro_x,gyro_y,gyro_z,mag_x,mag_y,mag_z
4705265206854,-1.0392914,1.8793793,8.739746,0.0,0.0,0.0,0.0,0.0,0.0,
4705270242254,-1.1896515,1.9681702,8.929367,-0.20135498,0.23478699,-0.21360779,0.0,0.0,0.0,
4705275277655,-1.2612305,1.9304352,9.41069,-0.22703552,0.17553711,-0.19003296,0.0,0.0,0.0,
4705280313055,-1.322586,1.8239899,9.995331,-0.24101257,0.10745239,-0.16567993,0.0,0.0,0.0,
4705285348456,-1.4107513,1.7140198,10.620209,-0.23396301,0.03616333,-0.14207458,19.392395,6.4208984,-50.654602,
4705290383856,-1.3833618,1.6423798,11.2276,-0.20166016,-0.04034424,-0.11618042,19.392395,6.4208984,-50.654602,
4705295419256,-1.209137,1.6149902,11.588974,-0.13928223,-0.10798645,-0.08534241,19.392395,6.4208984,-50.654602,
4705300454657,-1.0046692,1.655365,11.582321,-0.055404663,-0.14978027,-0.053253174,19.392395,6.4208984,-50.654602,
4705305490057,-0.8788452,1.7333832,11.311905,0.043121338,-0.16062927,-0.022201538,19.522095,6.678772,-51.913452,
4705310525458,-0.8295288,1.8530426,10.973923,0.13877869,-0.13711548,0.0026550293,19.522095,6.678772,-51.913452,
4705315560858,-0.7411194,2.0161743,10.58963,0.21006775,-0.09069824,0.01927185,19.522095,6.678772,-51.913452,
4705320596258,-0.6082916,2.1537933,10.2164,0.25735474,-0.027175903,0.03413391,19.522095,6.678772,-51.913452,
4705325631659,-0.56085205,2.2372437,9.819687,0.27685547,0.049331665,0.047088623,19.638062,6.0943604,-49.97711,
4705330667059,-0.6239166,2.330246,9.493698,0.27261353,0.12696838,0.055007935,19.638062,6.0943604,-49.97711,
4705335702460,-0.7113037,2.3342743,9.265778,0.25524902,0.19537354,0.057388306,19.638062,6.0943604,-49.97711,
4705340737860,-0.6900177,2.3409576,8.992447,0.233078,0.24017334,0.05419922,19.638062,6.0943604,-49.97711,
4705345773260,-0.6861725,2.3958282,8.748306,0.21884155,0.25430298,0.051712036,20.518494,5.937195,-50.561523,
4705350808661,-0.6981201,2.4538116,8.4713745,0.210495,0.23852539,0.050323486,20.518494,5.937195,-50.561523,
4705355844061,-0.77160645,2.4292297,8.153641,0.21313477,0.19407654,0.048294067,20.518494,5.937195,-50.561523,
4705360879462,-0.8197174,2.4904633,7.794632,0.21939087,0.127182,0.045166016,20.518494,5.937195,-50.561523,
4705365914862,-0.88557434,2.5144196,7.5152893,0.22692871,0.04449463,0.0438385,20.895386,5.9921265,-51.24359,
4705370950262,-0.9069519,2.5999756,7.3792114,0.22857666,-0.04727173,0.047714233,20.895386,5.9921265,-51.24359,
4705375985663,-0.94389343,2.6549377,7.2689056,0.22013855,-0.13380432,0.054626465,20.895386,5.9921265,-51.24359,
4705381021063,-0.8948517,2.7442322,7.328171,0.19616699,-0.21907043,0.06588745,20.895386,5.9921265,-51.24359,
4705386056463,-0.8430481,2.7594757,7.6235046,0.15708923,-0.28308105,0.08111572,19.360352,6.7581177,-50.24414,
4705391091864,-0.7442932,2.8121033,7.8940125,0.10812378,-0.32965088,0.094192505,19.360352,6.7581177,-50.24414,
4705396127264,-0.67674255,2.8379364,8.168396,0.0592041,-0.3640747,0.1081543,19.360352,6.7581177,-50.24414,
4705401162665,-0.65200806,2.8126068,8.598846,0.018585205,-0.38417053,0.11567688,18.190002,5.0872803,-50.531006,
4705406198065,-0.63442993,2.7051697,8.907166,-0.0107421875,-0.39523315,0.12173462,18.190002,5.0872803,-50.531006,
4705411233465,-0.52601624,2.6207123,9.101822,-0.03236389,-0.39227295,0.1257019,18.190002,5.0872803,-50.531006,
4705416268866,-0.37876892,2.6653748,9.140457,-0.04598999,-0.3713684,0.1335907,18.190002,5.0872803,-50.531006,
4705421304266,-0.26315308,2.739441,9.14798,-0.05583191,-0.33035278,0.14312744,17.977905,4.446411,-50.74005,
4705426339667,-0.066711426,2.8613281,9.090851,-0.066604614,-0.27201843,0.15022278,17.977905,4.446411,-50.74005,
4705431375067,0.05886841,2.9611511,9.061707,-0.08239746,-0.20796204,0.15299988,17.977905,4.446411,-50.74005,
4705436410467,0.2548828,3.0224304,9.052124,-0.10151672,-0.14916992,0.14805603,17.977905,4.446411,-50.74005,
4705441445868,0.40423584,3.0382233,9.056976,-0.12388611,-0.09512329,0.13586426,19.08722,5.555725,-51.01013,
4705446481268,0.55659485,3.0677185,9.064514,-0.13505554,-0.06352234,0.117614746,19.08722,5.555725,-51.01013,
4705451516669,0.73117065,3.1360474,9.061813,-0.13395691,-0.0541687,0.09472656,19.08722,5.555725,-51.01013,
4705456552069,0.80326843,3.120163,9.026474,-0.12121582,-0.06460571,0.06437683,19.08722,5.555725,-51.01013,
4705461587469,0.820755,3.0730286,8.886795,-0.101745605,-0.08598328,0.029678345,19.070435,4.1412354,-50.801086,
4705466622870,0.79797363,3.052353,8.723465,-0.08073425,-0.11427307,-0.0062561035,19.070435,4.1412354,-50.801086,
4705471658270,0.716629,2.9994354,8.611862,-0.05973816,-0.14755249,-0.045715332,19.070435,4.1412354,-50.801086,
4705476693671,0.61650085,2.9361572,8.479919,-0.05104065,-0.17152405,-0.08305359,19.070435,4.1412354,-50.801086,
4705481729071,0.49969482,2.8843231,8.456467,-0.05342102,-0.18746948,-0.11778259,19.007874,3.7597656,-50.74005,
4705486764471,0.46733093,2.8624725,8.575516,-0.06843567,-0.19488525,-0.14820862,19.007874,3.7597656,-50.74005,
4705491799872,0.47044373,2.8260803,8.722534,-0.09213257,-0.19056702,-0.17198181,19.007874,3.7597656,-50.74005,
4705496835272,0.4972992,2.7116394,8.822815,-0.12080383,-0.17045593,-0.18972778,19.007874,3.7597656,-50.74005,
4705501870672,0.5164032,2.6366577,8.848236,-0.1503601,-0.13168335,-0.20240784,18.556213,5.407715,-50.886536,
4705506906073,0.47373962,2.5932465,8.86557,-0.17874146,-0.08087158,-0.2111206,18.556213,5.407715,-50.886536,
4705511941473,0.40116882,2.5640717,8.848679,-0.20489502,-0.018814087,-0.21705627,18.556213,5.407715,-50.886536,
4705516976874,0.28829956,2.5197906,8.84581,-0.23008728,0.04963684,-0.21961975,18.556213,5.407715,-50.886536,
4705522012274,0.18623352,2.4901886,8.87471,-0.25401306,0.117004395,-0.21777344,17.134094,6.100464,-51.64337,
4705527047674,0.14480591,2.4735107,8.93837,-0.27700806,0.186203,-0.2066803,17.134094,6.100464,-51.64337,
4705532083075,0.118927,2.3979187,9.013687,-0.2955017,0.24861145,-0.18713379,17.134094,6.100464,-51.64337,
4705537118475,0.09379578,2.3681183,9.057907,-0.3032074,0.29603577,-0.16293335,17.134094,6.100464,-51.64337,
4705542153876,0.12852478,2.4542084,9.138794,-0.30007935,0.32929993,-0.13748169,16.946411,6.163025,-51.745605,
4705547189276,0.32237244,2.6209106,9.14856,-0.28320313,0.34518433,-0.11088562,16.946411,6.163025,-51.745605,
4705552224676,0.5812988,2.8124084,9.11525,-0.25398254,0.33969116,-0.08494568,16.946411,6.163025,-51.745605,
4705557260077,0.81851196,2.976181,8.939606,-0.21200562,0.31103516,-0.06297302,16.946411,6.163025,-51.745605,
4705562295477,0.9199524,3.1425781,8.694595,-0.16427612,0.25854492,-0.054519653,18.395996,6.968689,-50.331116,
4705567330878,0.8877716,3.1987915,8.577209,-0.1186676,0.19148254,-0.060928345,18.395996,6.968689,-50.331116,
4705572366278,0.7687988,3.3012085,8.399231,-0.07911682,0.11326599,-0.07923889,18.395996,6.968689,-50.331116,
4705577401678,0.66244507,3.3318481,8.288223,-0.050476074,0.03060913,-0.1000061,18.395996,6.968689,-50.331116,
4705582437079,0.5652313,3.3082428,8.235687,-0.037612915,-0.04673767,-0.11769104,18.492126,6.6986084,-51.49536,
4705587472479,0.3885193,3.2973022,8.329086,-0.037002563,-0.13150024,-0.13362122,18.492126,6.6986084,-51.49536,
4705592507879,0.12496948,3.197174,8.396179,-0.053344727,-0.20445251,-0.14701843,18.492126,6.6986084,-51.49536,
4705597543280,-0.12687683,3.0503235,8.694855,-0.0796814,-0.2687683,-0.1543274,18.492126,6.6986084,-51.49536,
4705602578680,-0.3033905,2.976059,8.92868,-0.11579895,-0.31707764,-0.15196228,18.492126,6.678772,-51.57776,
4705607614081,-0.31596375,2.949112,9.059967,-0.15808105,-0.34280396,-0.1375122,18.492126,6.678772,-51.57776,
4705612649481,-0.18725586,2.9794312,9.284363,-0.19869995,-0.3478241,-0.11364746,18.492126,6.678772,-51.57776,
4705617684881,0.028762817,3.053299,9.527451,-0.24923706,-0.33137512,-0.08163452,18.492126,6.678772,-51.57776,
4705622720282,0.22982788,3.2201233,9.705368,-0.2985382,-0.29748535,-0.05317688,18.492126,6.678772,-51.57776,
4705627755682,0.45700073,3.4045258,9.814377,-0.34754944,-0.25120544,-0.030548096,18.492126,6.678772,-51.57776,
4705632791083,0.668808,3.4696045,9.92215,-0.3895111,-0.19673157,-0.018218994,18.492126,6.678772,-51.57776,
4705637826483,0.8415375,3.5808868,10.033936,-0.42268372,-0.14178467,-0.019241333,19.856262,7.3623657,-51.24359,
4705642861883,0.7928467,3.623169,10.090347,-0.4468689,-0.09738159,-0.032791138,19.856262,7.3623657,-51.24359,
4705647897284,0.7591553,3.615448,10.074783,-0.4644165,-0.06121826,-0.061294556,19.856262,7.3623657,-51.24359,
4705652932684,0.6404877,3.527771,10.149704,-0.47052002,-0.039108276,-0.09068298,19.856262,7.3623657,-51.24359,
4705657968085,0.52612305,3.4278107,10.180145,-0.4654541,-0.031539917,-0.11985779,17.289734,6.5063477,-51.411438,
4705663003485,0.34588623,3.320877,10.187576,-0.44909668,-0.04273987,-0.14608765,17.289734,6.5063477,-51.411438,
4705668038885,0.13703918,3.2056274,10.144165,-0.42303467,-0.061035156,-0.16577148,17.289734,6.5063477,-51.411438,
4705673074286,-0.014556885,3.1459808,10.013229,-0.39727783,-0.08227539,-0.17504883,17.289734,6.5063477,-51.411438,
4705678109686,-0.11961365,3.1284943,10.017761,-0.3703308,-0.10227966,-0.17097473,17.304993,6.5063477,-51.379395,
4705683145087,-0.16397095,3.1666412,10.032684,-0.34680176,-0.11810303,-0.15698242,17.304993,6.5063477,-51.379395,
4705688180487,-0.072006226,3.1960602,10.02594,-0.32112122,-0.13070679,-0.13908386,17.304993,6.5063477,-51.379395,
4705693215887,0.03302002,3.2402344,9.965363,-0.29244995,-0.138443,-0.11723328,17.304993,6.5063477,-51.379395,
4705698251288,0.0973053,3.2376862,9.895142,-0.26055908,-0.14242554,-0.09625244,17.713928,6.6314697,-50.750732,
4705703286688,0.18348694,3.2068787,9.819687,-0.22592163,-0.14186096,-0.07673645,17.713928,6.6314697,-50.750732,
4705708322088,0.272583,3.198532,9.637421,-0.18536377,-0.13565063,-0.057266235,17.713928,6.6314697,-50.750732,
4705713357489,0.37516785,3.2574768,9.406204,-0.14428711,-0.123062134,-0.039978027,17.713928,6.6314697,-50.750732,
4705718392889,0.48336792,3.2697601,9.094681,-0.104385376,-0.10316467,-0.026062012,18.83545,8.395386,-50.907898,
4705723428290,0.53201294,3.322586,8.825867,-0.068878174,-0.08180237,-0.014526367,18.83545,8.395386,-50.907898,
4705728463690,0.5418701,3.3621063,8.620697,-0.04069519,-0.060806274,-0.005355835,18.83545,8.395386,-50.907898,
4705733499090,0.5208893,3.381134,8.508133,-0.016494751,-0.039993286,0.001739502,18.83545,8.395386,-50.907898,
4705738534491,0.48799133,3.3880463,8.464432,0.005065918,-0.02178955,0.007461548,18.739319,8.604431,-50.96283,
4705743569891,0.4699707,3.4145508,8.374649,0.029190063,-0.01222229,0.010696411,18.739319,8.604431,-50.96283,
4705748605292,0.55010986,3.5202637,8.212219,0.061798096,-0.0154418945,0.012878418,18.739319,8.604431,-50.96283,
4705753640692,0.69963074,3.658722,8.115845,0.104400635,-0.03337097,0.01689148,18.739319,8.604431,-50.96283,
4705758676092,0.848053,3.756485,8.097458,0.15242004,-0.064575195,0.016799927,17.887878,9.924316,-51.322937,
4705763711493,1.0136719,3.8368835,7.9806366,0.2078247,-0.1025238,0.008010864,17.887878,9.924316,-51.322937,
4705768746893,1.2587891,3.9231262,7.7191772,0.26768494,-0.13256836,-0.0077819824,17.887878,9.924316,-51.322937,
4705773782294,1.4982758,3.993744,7.430588,0.32466125,-0.15238953,-0.028839111,17.887878,9.924316,-51.322937,
4705778817694,1.6164398,4.080551,7.055893,0.37239075,-0.16842651,-0.059936523,17.289734,7.536316,-50.74005,
4705783853094,1.6086273,4.12442,6.7445984,0.41220093,-0.18292236,-0.10391235,17.289734,7.536316,-50.74005,
4705788888495,1.4972534,4.1529236,6.3927,0.43980408,-0.19277954,-0.15542603,17.289734,7.536316,-50.74005,
4705793923895,1.4192047,4.1217346,6.120056,0.44995117,-0.1947174,-0.2106781,17.289734,7.536316,-50.74005,
4705798959296,1.4315948,4.101074,6.1466827,0.43836975,-0.19277954,-0.25836182,17.411804,7.902527,-50.85907,
4705803994696,1.4242401,4.038162,6.147049,0.4041748,-0.19145203,-0.2979126,17.411804,7.902527,-50.85907,
4705809030096,1.333313,3.8829803,6.256653,0.35430908,-0.18334961,-0.33268738,17.411804,7.902527,-50.85907,
4705814065497,1.2476501,3.7831879,6.265045,0.29486084,-0.15740967,-0.36106873,17.411804,7.902527,-50.85907,
4705819100897,1.2619934,3.6760101,6.22435,0.23291016,-0.11845398,-0.3782196,17.875671,9.42688,-51.44348,
4705824136297,1.159256,3.6437378,6.2103424,0.15853882,-0.0652771,-0.38789368,17.875671,9.42688,-51.44348,
4705829171698,0.9007721,3.6240082,6.42749,0.08125305,-0.014511108,-0.38885498,17.875671,9.42688,-51.44348,
4705834207098,0.5868225,3.5750732,6.8047333,-0.0023498535,0.03186035,-0.38587952,17.875671,9.42688,-51.44348,
4705839242499,0.354599,3.5772095,7.208786,-0.086639404,0.06768799,-0.37854004,17.462158,8.7387085,-51.57776,
4705844277899,0.19578552,3.5421295,7.5160675,-0.16007996,0.097335815,-0.3667755,17.462158,8.7387085,-51.57776,
4705849313299,0.06513977,3.5131683,8.022461,-0.21365356,0.12095642,-0.3456726,17.462158,8.7387085,-51.57776,
4705854348700,0.13195801,3.5213776,8.546661,-0.25650024,0.13552856,-0.31367493,17.503357,8.612061,-51.53656,
4705859384100,0.41841125,3.5552979,9.04834,-0.27400208,0.12857056,-0.27973938,17.503357,8.612061,-51.53656,
4705864419501,0.704895,3.6335602,9.279327,-0.26060486,0.11109924,-0.24659729,17.503357,8.612061,-51.53656,
4705869454901,0.9036865,3.7467499,9.309326,-0.22076416,0.09275818,-0.22465515,17.503357,8.612061,-51.53656,
4705874490301,0.9711609,3.8964233,9.138184,-0.16279602,0.07762146,-0.21600342,17.544556,8.132935,-51.150513,
4705879525702,1.1462402,4.002899,8.845917,-0.101882935,0.06315613,-0.21833801,17.544556,8.132935,-51.150513,
4705884561102,1.3724365,4.039154,8.735764,-0.04006958,0.04171753,-0.22817993,17.544556,8.132935,-51.150513,
4705889596503,1.4666595,3.9923553,8.770645,0.0030975342,0.018295288,-0.2434082,17.544556,8.132935,-51.150513,
4705894631903,1.5136261,3.9378967,8.815704,0.032089233,0.0019683838,-0.2692566,17.289734,7.8796387,-50.405884,
4705899667303,1.3787537,3.84935,8.917664,0.047805786,-0.0025634766,-0.29994202,17.289734,7.8796387,-50.405884,
4705904702704,1.2299957,3.5648804,9.124527,0.055007935,0.0034637451,-0.33459473,17.289734,7.8796387,-50.405884,
4705909738104,1.0771484,3.3185577,9.257065,0.05647278,0.022842407,-0.36712646,17.289734,7.8796387,-50.405884,
4705914773504,0.8597412,3.190155,9.278412,0.05531311,0.06309509,-0.39074707,16.972351,8.407593,-50.405884,
4705919808905,0.62101746,3.1886444,9.248413,0.05455017,0.106933594,-0.39814758,16.972351,8.407593,-50.405884,
4705924844305,0.349411,3.2350006,9.195557,0.052856445,0.15093994,-0.39401245,16.972351,8.407593,-50.405884,
4705929879706,0.0018005371,3.2235107,9.172058,0.04701233,0.1907196,-0.38233948,16.972351,8.407593,-50.405884,
4705934915106,-0.60069275,3.1297913,9.025894,0.040985107,0.22084045,-0.36810303,16.148376,9.484863,-51.164246,
4705939950506,-0.8307648,3.148529,9.0807495,0.03387451,0.24246216,-0.34677124,16.148376,9.484863,-51.164246,
4705944985907,-0.5561676,3.2842255,9.496689,0.019378662,0.25222778,-0.30775452,16.148376,9.484863,-51.164246,
4705950021307,-0.20236206,3.494522,9.93251,-9.918213E-4,0.240448,-0.25793457,16.148376,9.484863,-51.164246,
4705955056708,-0.011886597,3.6431274,10.134689,-0.020553589,0.21388245,-0.21081543,15.916443,9.25293,-52.75116,
4705960092108,0.07417297,3.6459808,10.177948,-0.031295776,0.18704224,-0.17852783,15.916443,9.25293,-52.75116,
4705965127508,0.13619995,3.5592957,10.264923,-0.035095215,0.15736389,-0.16226196,15.916443,9.25293,-52.75116,
4705970162909,0.12931824,3.4902496,10.389725,-0.035232544,0.11331177,-0.15808105,15.916443,9.25293,-52.75116,
4705975198309,0.11526489,3.4739532,10.61763,-0.030090332,0.047470093,-0.16035461,16.171265,9.124756,-52.25067,
4705980233710,0.1298523,3.407318,10.994476,-0.022460938,-0.03630066,-0.16014099,16.171265,9.124756,-52.25067,
4705985269110,0.1387024,3.2780457,11.513824,-0.012954712,-0.1328888,-0.15548706,16.171265,9.124756,-52.25067,
4705990304510,0.13230896,3.1311035,12.069855,-1.0681152E-4,-0.22819519,-0.14828491,16.171265,9.124756,-52.25067,
4705995339911,0.12779236,2.975006,12.527466,0.016571045,-0.2992096,-0.13973999,16.668701,8.842468,-51.0849,
4706000375311,0.17788696,2.8632507,12.917282,0.036499023,-0.34057617,-0.12646484,16.668701,8.842468,-51.0849,
4706005410712,0.26649475,2.8117065,13.233826,0.05239868,-0.3461151,-0.10722351,16.668701,8.842468,-51.0849,
4706010446112,0.31729126,2.8841553,13.469955,0.063308716,-0.32408142,-0.08572388,16.668701,8.842468,-51.0849,
4706015481512,0.4728241,3.0854797,13.742523,0.07463074,-0.28556824,-0.06468201,16.775513,8.7387085,-50.572205,
4706020516913,0.63804626,3.2700043,13.993027,0.08743286,-0.23277283,-0.050964355,16.775513,8.7387085,-50.572205,
4706025552313,0.505188,3.3533478,14.036316,0.10508728,-0.17150879,-0.04812622,16.775513,8.7387085,-50.572205,
4706030587713,0.31498718,3.226654,13.804779,0.129776,-0.08528137,-0.057022095,16.775513,8.7387085,-50.572205,
4706035623114,0.24006653,2.961441,13.371384,0.15188599,0.022628784,-0.06752014,16.85028,8.963013,-50.645447,
4706040658514,0.02722168,2.671051,12.856995,0.15864563,0.15078735,-0.07122803,16.85028,8.963013,-50.645447,
4706045693915,-0.2850647,2.3148956,12.529907,0.14128113,0.28883362,-0.06982422,16.85028,8.963013,-50.645447,
4706050729315,-0.7176361,2.117096,12.213409,0.09635925,0.42697144,-0.06764221,16.85028,8.963013,-50.645447,
4706055764715,-1.1852112,1.9928131,11.98407,0.036239624,0.5533447,-0.061203003,17.100525,9.872437,-50.58899,
4706060800116,-1.6383972,1.9115448,11.954056,-0.044525146,0.6872101,-0.045455933,17.100525,9.872437,-50.58899,
4706065835516,-1.9332275,2.0013733,12.141052,-0.12789917,0.7921295,-0.02394104,17.100525,9.872437,-50.58899,
4706070870917,-2.1419678,2.1154022,12.431671,-0.20147705,0.865921,0.0059509277,17.100525,9.872437,-50.58899,
4706075906317,-2.321991,2.2743225,12.57132,-0.2539673,0.9079437,0.034500122,17.289734,10.627747,-50.405884,
4706080941717,-2.5272522,2.2663116,12.498093,-0.28175354,0.92697144,0.06173706,17.289734,10.627747,-50.405884,
4706085977118,-2.6927643,2.0661469,12.426865,-0.2879486,0.9220581,0.08605957,17.289734,10.627747,-50.405884,
4706091012518,-2.7767944,1.9445038,12.489975,-0.27589417,0.882843,0.119903564,17.289734,10.105896,-50.743103,
4706096047919,-2.8298645,1.8401794,12.56221,-0.2566986,0.8101349,0.15859985,17.289734,10.105896,-50.743103,
4706101083319,-2.7524872,1.8757629,12.817184,-0.22763062,0.7119751,0.2038269,17.289734,10.105896,-50.743103,
4706106118719,-2.5441284,1.8931732,13.19902,-0.18798828,0.597641,0.2566681,17.289734,10.105896,-50.743103,
4706111154120,-2.2698822,1.848587,13.3233185,-0.1353302,0.4811554,0.31181335,18.530273,9.063721,-50.21057,
4706116189520,-2.0371704,1.8889923,13.12796,-0.07040405,0.37983704,0.3646698,18.530273,9.063721,-50.21057,
4706121224921,-1.7444,1.9833069,12.756638,0.008865356,0.28204346,0.41870117,18.530273,9.063721,-50.21057,
4706126260321,-1.3209229,2.0254364,12.45546,0.07946777,0.2056427,0.4644165,18.530273,9.063721,-50.21057,
4706131295721,-0.9002991,2.1871796,12.221756,0.1337738,0.13664246,0.50749207,19.694519,8.566284,-49.40033,
4706136331122,-0.54875183,2.4218292,12.078766,0.16592407,0.07783508,0.5416565,19.694519,8.566284,-49.40033,
4706141366522,-0.22789001,2.6308746,11.875778,0.17662048,0.036392212,0.5616455,19.694519,8.566284,-49.40033,
4706146401922,0.025466919,2.7588654,11.603409,0.16889954,0.014602661,0.5663452,19.694519,8.566284,-49.40033,
4706151437323,0.1929779,2.838852,11.337158,0.13757324,0.011795044,0.5520477,19.79065,9.054565,-49.876404,
4706156472723,0.31414795,2.8429108,11.242004,0.091430664,0.02178955,0.5225067,19.79065,9.054565,-49.876404,
4706161508124,0.3197174,2.7690582,11.165344,0.031951904,0.036376953,0.48382568,19.79065,9.054565,-49.876404,
4706166543524,0.2102356,2.649994,11.2057495,-0.03250122,0.048706055,0.43959045,19.79065,9.054565,-49.876404,
4706171578924,0.06286621,2.4519806,11.3155365,-0.09310913,0.058166504,0.3922882,19.865417,9.225464,-50.62561,
4706176614325,-0.21183777,2.179657,11.537857,-0.14506531,0.06373596,0.3449402,19.865417,9.225464,-50.62561,
4706181649725,-0.52368164,1.9269409,11.723221,-0.18043518,0.06512451,0.29734802,19.865417,9.225464,-50.62561,
4706186685126,-0.8301239,1.662384,11.680237,-0.19030762,0.063705444,0.26411438,19.865417,9.225464,-50.62561,
4706191720526,-1.1725006,1.3956909,11.48465,-0.17489624,0.057907104,0.24694824,19.865417,9.082031,-50.907898,
4706196755926,-1.4066162,1.2044373,11.30278,-0.13761902,0.047073364,0.24502563,19.865417,9.082031,-50.907898,
4706201791327,-1.4745178,1.1087341,11.185501,-0.09013367,0.032348633,0.25953674,19.865417,9.082031,-50.907898,
4706206826727,-1.4617157,1.0319214,11.227005,-0.03767395,0.01109314,0.29058838,19.865417,9.082031,-50.907898,
4706211862128,-1.4484863,1.0240326,11.1489105,0.023117065,-0.014312744,0.33143616,19.429016,8.427429,-49.420166,
4706216897528,-1.4050293,1.0986481,10.728836,0.09303284,-0.03451538,0.37153625,19.429016,8.427429,-49.420166,
4706221932928,-1.1545715,1.2202759,10.137344,0.17224121,-0.049423218,0.41212463,19.429016,8.427429,-49.420166,
4706226968329,-0.9008179,1.4091034,9.504013,0.25135803,-0.063827515,0.45089722,19.429016,8.427429,-49.420166,
4706232003729,-0.69918823,1.6729584,8.821152,0.31651306,-0.08744812,0.4806366,20.173645,8.825684,-48.884583,
4706237039129,-0.34848022,1.8995056,8.128204,0.36746216,-0.11920166,0.4994812,20.173645,8.825684,-48.884583,
4706242074530,-0.07557678,2.0817413,7.5234222,0.3927002,-0.15156555,0.5055542,20.173645,8.825684,-48.884583,
4706247109930,0.28172302,2.3370667,7.0892944,0.39059448,-0.1862793,0.4948883,20.173645,8.825684,-48.884583,
4706252145331,0.639801,2.5385742,6.678299,0.3605652,-0.21990967,0.46687317,20.724487,9.25293,-49.064636,
4706257180731,0.82914734,2.6004944,6.3964233,0.2998352,-0.24386597,0.4188385,20.724487,9.25293,-49.064636,
4706262216131,0.74720764,2.6029816,6.270447,0.21636963,-0.24583435,0.3582611,20.724487,9.25293,-49.064636,
4706267251532,0.6226654,2.5180054,6.4059143,0.10038757,-0.22468567,0.27641296,20.724487,9.25293,-49.064636,
4706272286932,0.49461365,2.3992462,6.6858063,-0.0287323,-0.1885376,0.19055176,19.644165,8.174133,-50.115967,
4706277322333,0.36904907,2.1889038,7.033127,-0.15705872,-0.15026855,0.10974121,19.644165,8.174133,-50.115967,
4706282357733,0.17175293,1.9023132,7.2991486,-0.2722168,-0.111953735,0.032592773,19.644165,8.174133,-50.115967,
4706287393133,-0.018035889,1.7184448,7.4240417,-0.36740112,-0.07572937,-0.03514099,19.644165,8.174133,-50.115967,
4706292428534,-0.2533722,1.4839935,7.7816772,-0.433609,-0.047409058,-0.08938599,19.541931,7.58667,-50.216675,
4706297463934,-0.48927307,1.3153381,8.027206,-0.48846436,-0.022140503,-0.13760376,19.541931,7.58667,-50.216675,
4706302499335,-0.6843109,1.0251007,8.561157,-0.51452637,-0.014282227,-0.17131042,19.541931,7.58667,-50.216675,
4706307534735,-0.87939453,0.7629547,8.823883,-0.51582336,-0.02116394,-0.19378662,19.541931,7.58667,-50.216675,
4706312570135,-1.2121277,0.43397522,8.911926,-0.4861145,-0.036254883,-0.20613098,19.694519,7.536316,-50.07019,
4706317605536,-1.6613159,0.1315155,8.781006,-0.4861145,-0.036254883,-0.20613098,19.694519,7.536316,-50.07019,
4706322640936,-1.8715973,-0.011199951,8.586029,-0.35542297,-0.061553955,-0.19403076,19.694519,7.536316,-50.07019,
4706327676337,-2.0245667,0.07397461,8.350952,-0.2752533,-0.06813049,-0.14448547,19.432068,8.584595,-50.837708,
4706332711737,-2.0142517,0.33636475,7.9937744,-0.20462036,-0.085250854,-0.08248901,19.432068,8.584595,-50.837708,
4706337747137,-1.7023773,0.5211334,7.773651,-0.1408844,-0.1113739,-0.011749268,19.432068,8.584595,-50.837708,
4706342782538,-1.3504639,0.63752747,7.5855255,-0.08380127,-0.138031,0.058029175,19.432068,8.584595,-50.837708,
4706347817938,-0.9708252,0.8221741,7.6138916,-0.043762207,-0.16699219,0.115112305,19.615173,8.114624,-50.55847,
4706352853338,-0.6352234,0.99967957,7.5408325,-0.013244629,-0.19177246,0.15890503,19.615173,8.114624,-50.55847,
4706357888739,-0.19882202,1.2527924,7.418625,0.019210815,-0.20803833,0.19189453,19.615173,8.114624,-50.55847,
4706362924139,0.17164612,1.3480835,7.4111786,0.05293274,-0.21087646,0.2106018,19.615173,8.114624,-50.55847,
4706367959540,0.36865234,1.2216644,7.3559265,0.08331299,-0.20664978,0.21331787,19.694519,7.8796387,-50.405884,
4706372994940,0.3222046,1.1860657,7.1704407,0.11798096,-0.19662476,0.20106506,19.694519,7.8796387,-50.405884,
4706378030340,0.26945496,1.3320313,6.81514,0.15382385,-0.17738342,0.18475342,19.694519,7.8796387,-50.405884,
4706383065741,0.24154663,1.4862518,6.555435,0.18623352,-0.15089417,0.16967773,19.694519,7.8796387,-50.405884,
4706388101141,0.13108826,1.509613,6.4260254,0.21333313,-0.11885071,0.15931702,18.128967,8.874512,-49.71161,
4706393136542,-0.111694336,1.4503021,6.3379974,0.22756958,-0.093673706,0.14912415,18.128967,8.874512,-49.71161,
4706398171942,-0.33010864,1.3512878,6.2562714,0.23550415,-0.07258606,0.14012146,18.128967,8.874512,-49.71161,
4706403207342,-0.49137878,1.282608,6.188431,0.23947144,-0.051940918,0.13948059,18.128967,8.874512,-49.71161,
4706408242743,-0.62590027,1.2612152,6.166275,0.24107361,-0.03390503,0.1516571,19.667053,9.223938,-50.26703,
4706413278143,-0.7856903,1.2962494,6.1743927,0.23919678,-0.015686035,0.17599487,19.667053,9.223938,-50.26703,
4706418313544,-0.83729553,1.3740082,6.1044006,0.23625183,0.006515503,0.2118988,19.667053,9.223938,-50.26703,
4706423348944,-0.71113586,1.5167542,5.941269,0.2345581,0.029647827,0.2520752,19.667053,9.223938,-50.26703,
4706428384344,-0.41767883,1.7666168,5.837631,0.23295593,0.04675293,0.29566956,20.037842,9.25293,-50.405884,
4706433419745,-0.048339844,2.0831757,5.795349,0.22698975,0.05769348,0.33554077,20.037842,9.25293,-50.405884,
4706438455145,0.31282043,2.4213257,5.7086487,0.21226501,0.06611633,0.36082458,20.037842,9.25293,-50.405884,
4706443490546,0.6697235,2.7170258,5.600708,0.1876831,0.07594299,0.36787415,20.037842,9.25293,-50.405884,
4706448525946,0.966156,2.9407349,5.55365,0.15220642,0.0884552,0.35350037,19.577026,8.180237,-51.75171,
4706453561346,1.1728668,3.1348877,5.563019,0.10913086,0.09965515,0.32173157,19.577026,8.180237,-51.75171,
4706458596747,1.1804504,3.306549,5.811676,0.06590271,0.099624634,0.2762909,19.577026,8.180237,-51.75171,
4706463632147,0.97102356,3.3509216,6.2135468,0.03125,0.075424194,0.21594238,19.577026,8.180237,-51.75171,
4706468667547,0.60443115,3.2281647,6.600891,0.014465332,0.02633667,0.14901733,19.830322,8.360291,-51.01013,
4706473702948,0.05810547,2.977478,7.1090393,0.020523071,-0.04777527,0.07914734,19.830322,8.360291,-51.01013,
4706478738348,-0.4119568,2.7573242,7.615448,0.050445557,-0.13928223,0.021316528,19.830322,8.360291,-51.01013,
4706483773749,-0.7461853,2.5529938,8.034531,0.10057068,-0.23677063,-0.011169434,19.830322,8.360291,-51.01013,
4706488809149,-0.93473816,2.4134216,8.327072,0.16801453,-0.33309937,-0.011871338,19.865417,8.395386,-50.907898,
4706493844549,-0.97566223,2.3066254,8.558426,0.24761963,-0.41601563,0.012542725,19.865417,8.395386,-50.907898,
4706498879950,-0.9154358,2.3765259,8.692963,0.32025146,-0.4753418,0.0521698,19.865417,8.395386,-50.907898,
4706503915350,-0.7687073,2.5303802,8.63382,0.3926239,-0.51675415,0.10498047,19.865417,8.395386,-50.907898,
4706508950751,-0.5600281,2.6859436,8.547363,0.453125,-0.5296478,0.15625,20.523071,7.736206,-51.228333,
4706513986151,-0.27812195,2.8940582,8.495422,0.49441528,-0.51724243,0.19992065,20.523071,7.736206,-51.228333,
4706519021551,0.055358887,3.1754913,8.590561,0.5158539,-0.48399353,0.236969,20.523071,7.736206,-51.228333,
4706524056952,0.3735962,3.4074707,8.603714,0.5161743,-0.43440247,0.26057434,20.523071,7.736206,-51.228333,
4706529092352,0.62586975,3.52388,8.661819,0.49951172,-0.37454224,0.26361084,20.387268,7.2113037,-50.75836,
4706534127753,0.7481842,3.5641174,8.901993,0.4688263,-0.2975464,0.24682617,20.387268,7.2113037,-50.75836,
4706539163153,0.63087463,3.6355438,9.343338,0.4267273,-0.21969604,0.21168518,20.387268,7.2113037,-50.75836,
4706544198553,0.44122314,3.4929504,9.69075,0.37800598,-0.13719177,0.16319275,20.387268,7.2113037,-50.75836,
4706549233954,0.16293335,3.3124237,9.891037,0.3298645,-0.04966736,0.113967896,20.387268,7.2113037,-50.75836,
4706554269354,-0.12149048,3.131836,9.942947,0.3298645,-0.04966736,0.113967896,20.387268,7.2113037,-50.75836,
4706559304754,-0.35557556,2.985077,10.058289,0.25509644,0.12927246,0.036010742,20.387268,7.2113037,-50.75836,
4706564340155,-0.56430054,3.022995,10.181274,0.22058105,0.21128845,0.013046265,20.378113,7.1884155,-50.74005,
4706569375555,-0.7455139,3.038269,10.231369,0.19882202,0.26480103,0.0025634766,20.378113,7.1884155,-50.74005,
4706574410956,-0.8742523,2.9524078,10.108185,0.18995667,0.2839508,-0.0030212402,20.378113,7.1884155,-50.74005,
4706579446356,-0.92633057,2.9483032,9.787079,0.19921875,0.26852417,-6.866455E-4,20.378113,7.1884155,-50.74005,
4706584481756,-0.8364563,2.984146,9.380066,0.21844482,0.21986389,0.0027008057,18.62793,5.1208496,-50.750732,
4706589517157,-0.7240448,3.0625305,9.030457,0.2350769,0.14408875,0.0068359375,18.62793,5.1208496,-50.750732,
4706594552557,-0.5264282,3.014801,8.925934,0.24229431,0.024673462,0.010192871,18.62793,5.1208496,-50.750732,
4706599587958,-0.46618652,2.9697266,9.132645,0.23362732,-0.11871338,0.005874634,18.62793,5.1208496,-50.750732,
4706604623358,-0.4011383,2.908661,9.549515,0.21546936,-0.28390503,-0.006881714,17.118835,4.6188354,-51.24359,
4706609658758,-0.29493713,2.8925934,10.112228,0.19171143,-0.4590454,-0.021331787,17.118835,4.6188354,-51.24359,
4706614694159,-0.17253113,2.8886719,10.752701,0.169281,-0.6282501,-0.032226563,17.118835,4.6188354,-51.24359,
4706619729559,-0.01083374,2.8286133,11.491379,0.14631653,-0.77993774,-0.04093933,17.118835,4.6188354,-51.24359,
4706624764960,0.12539673,2.741272,12.3107605,0.11416626,-0.90615845,-0.052337646,17.266846,4.6066284,-51.254272,
4706629800360,0.19848633,2.6630096,13.127731,0.06736755,-0.9706116,-0.065826416,17.266846,4.6066284,-51.254272,
4706634835760,0.28471375,2.6387787,13.943512,9.1552734E-4,-0.9670563,-0.08039856,17.266846,4.6066284,-51.254272,
4706639871161,0.39646912,2.5523071,14.75621,-0.08049011,-0.90008545,-0.09609985,17.266846,4.6066284,-51.254272,
4706644906561,0.443573,2.4502258,15.388794,-0.15878296,-0.7872772,-0.11323547,19.216919,4.4311523,-51.454163,
4706649941962,0.32887268,2.4092255,15.873062,-0.22789001,-0.6377411,-0.13510132,19.216919,4.4311523,-51.454163,
4706654977362,0.15594482,2.256424,16.067307,-0.28544617,-0.45629883,-0.16636658,19.216919,4.4311523,-51.454163,
4706660012762,0.0834198,2.027176,16.03891,-0.32048035,-0.27619934,-0.20129395,19.216919,4.4311523,-51.454163,
4706665048163,-0.032211304,1.859848,15.8749695,-0.33587646,-0.10153198,-0.23460388,17.805481,4.2755127,-51.913452,
4706670083563,-0.20707703,1.7654724,15.463974,-0.33903503,0.05583191,-0.26568604,17.805481,4.2755127,-51.913452,
4706675118963,-0.33895874,1.7103577,14.918549,-0.3368988,0.1874237,-0.2940216,17.805481,4.2755127,-51.913452,
4706680154364,-0.41734314,1.6460571,14.360168,-0.33361816,0.29611206,-0.3202057,17.805481,4.2755127,-51.913452,
4706685189764,-0.44218445,1.5654144,13.810333,-0.32833862,0.36647034,-0.34124756,17.713928,4.3655396,-51.82495,
4706690225165,-0.4766388,1.5030975,13.405518,-0.32244873,0.39379883,-0.35609436,17.713928,4.3655396,-51.82495,
4706695260565,-0.5525818,1.3736877,13.140671,-0.31698608,0.38415527,-0.36987305,17.713928,4.3655396,-51.82495,
4706700295965,-0.76600647,1.1801453,12.872025,-0.30873108,0.34448242,-0.3812561,17.713928,4.3655396,-51.82495,
4706705331366,-1.0380096,1.0194855,12.443939,-0.29464722,0.29354858,-0.3832245,16.989136,5.142212,-51.419067,
4706710366766,-1.2657928,0.95458984,11.996216,-0.28108215,0.24081421,-0.37374878,16.989136,5.142212,-51.419067,
4706715402167,-1.3375244,0.99079895,11.560699,-0.27841187,0.19447327,-0.35110474,16.989136,5.142212,-51.419067,
4706720437567,-1.2330475,1.0757904,11.323441,-0.2906494,0.14996338,-0.31611633,16.989136,5.142212,-51.419067,
4706725472967,-0.98924255,1.19841,11.2374115,-0.31843567,0.10038757,-0.27308655,16.259766,6.163025,-52.416992,
4706730508368,-0.63186646,1.288269,11.518753,-0.35603333,0.04396057,-0.22741699,16.259766,6.163025,-52.416992,
4706735543768,-0.3433075,1.4095306,11.837875,-0.3907013,-0.017852783,-0.18980408,16.259766,6.163025,-52.416992,
4706740579169,0.02229309,1.4893494,12.356857,-0.41764832,-0.09416199,-0.15623474,16.259766,6.163025,-52.416992,
4706745614569,0.5282898,1.6028748,12.892563,-0.42092896,-0.17427063,-0.13066101,16.360474,6.466675,-52.18506,
4706750649969,0.91874695,1.6504364,13.380035,-0.39938354,-0.24816895,-0.113220215,16.360474,6.466675,-52.18506,
4706755685370,1.1276398,1.7612915,13.840469,-0.35487366,-0.3093567,-0.10441589,16.360474,6.466675,-52.18506,
4706760720770,1.1614532,1.7248993,13.97847,-0.28837585,-0.3514862,-0.10366821,16.360474,6.466675,-52.18506,
4706765756171,1.084198,1.7000122,14.036621,-0.2083435,-0.37330627,-0.11112976,16.775513,7.4142456,-51.24359,
4706770791571,1.1602783,1.6431732,13.793137,-0.10220337,-0.3801117,-0.11732483,16.775513,7.4142456,-51.24359,
4706775826971,1.2931824,1.7159119,13.459656,0.0034942627,-0.36141968,-0.11230469,16.775513,7.4142456,-51.24359,
4706780862372,1.3718567,1.7167816,13.006668,0.105270386,-0.31796265,-0.10467529,16.775513,6.335449,-51.24359,
4706785897772,1.4175415,1.6000366,12.519333,0.19326782,-0.25646973,-0.09500122,16.775513,6.335449,-51.24359,
4706790933172,1.3904572,1.6158295,11.921158,0.19326782,-0.25646973,-0.09500122,16.775513,6.335449,-51.24359,
4706795968573,1.3852692,1.6635742,10.891907,0.33081055,-0.0945282,-0.07595825,16.775513,6.335449,-51.24359,
4706801003973,1.3550873,1.6897278,10.016006,0.39544678,-3.9672852E-4,-0.06402588,17.175293,6.5567017,-51.54724,
4706806039374,1.32547,1.7052002,9.023758,0.4431305,0.07583618,-0.051071167,17.175293,6.5567017,-51.54724,
4706811074774,1.3672638,1.7016754,8.10289,0.47784424,0.13301086,-0.03918457,17.175293,6.5567017,-51.54724,
4706816110174,1.4721527,1.83255,7.3118896,0.49369812,0.17448425,-0.028305054,17.175293,6.5567017,-51.54724,
4706821145575,1.5987244,1.9880371,6.6200714,0.49183655,0.19487,-0.01789856,17.89093,7.2402954,-52.36969,
4706826180975,1.6936646,2.1380157,6.003372,0.47306824,0.19598389,-0.011169434,17.89093,7.2402954,-52.36969,
4706831216376,1.795578,2.2346954,5.486786,0.434906,0.18011475,-0.016784668,17.89093,7.2402954,-52.36969,
4706836251776,1.875473,2.3110962,5.0870056,0.38728333,0.15246582,-0.03112793,17.89093,7.2402954,-52.36969,
4706841287176,1.9673767,2.3667145,4.861557,0.3231964,0.11782837,-0.051605225,16.775513,7.3654175,-52.249146,
4706846322577,1.9632874,2.3945923,4.8074036,0.2475586,0.07647705,-0.08026123,16.775513,7.3654175,-52.249146,
4706851357977,1.9850159,2.4140015,4.8598785,0.16659546,0.033187866,-0.114715576,16.775513,7.3654175,-52.249146,
4706856393378,1.9884949,2.3933716,5.1677246,0.08439636,-0.0124053955,-0.15019226,16.775513,7.3654175,-52.249146,
4706861428778,1.8042145,2.2774048,5.554352,-0.001373291,-0.064819336,-0.19184875,16.775513,7.1411133,-51.809692,
4706866464178,1.6531677,2.117981,5.963394,-0.071884155,-0.11357117,-0.2344513,16.775513,7.1411133,-51.809692,
4706871499579,1.5973206,2.0707397,6.434784,-0.12684631,-0.15988159,-0.27488708,16.775513,7.1411133,-51.809692,
4706876534979,1.5391083,2.014511,6.8405914,-0.16629028,-0.20223999,-0.30847168,16.775513,7.1411133,-51.809692,
4706881570379,1.4450073,1.8874817,7.14386,-0.18644714,-0.23744202,-0.33506775,17.185974,6.854248,-51.42212,
4706886605780,1.3250885,1.8021088,7.3684387,-0.1895752,-0.2636261,-0.36001587,17.185974,6.854248,-51.42212,
4706891641180,1.2093964,1.76828,7.559067,-0.17658997,-0.28378296,-0.38308716,17.185974,6.854248,-51.42212,
4706896676581,1.1595001,1.734436,7.7186584,-0.15159607,-0.30337524,-0.39900208,17.185974,6.854248,-51.42212,
4706901711981,1.1540222,1.7110901,7.7982025,-0.11882019,-0.32409668,-0.40933228,17.977905,7.192993,-52.416992,
4706906747381,1.184845,1.7653656,7.7261505,-0.08216858,-0.33677673,-0.41516113,17.977905,7.192993,-52.416992,
4706911782782,1.2962036,1.861618,7.5828247,-0.051116943,-0.33410645,-0.41885376,17.977905,7.192993,-52.416992,
4706916818182,1.3579102,1.9290009,7.5287476,-0.031921387,-0.3113861,-0.42500305,17.977905,7.192993,-52.416992,
4706921853583,1.295517,1.9375458,7.499298,-0.028579712,-0.26837158,-0.43681335,17.640686,7.797241,-51.693726,
4706926888983,1.1429443,1.9224854,7.523163,-0.037231445,-0.21434021,-0.4530182,17.640686,7.797241,-51.693726,
4706931924383,1.0151825,1.8774109,7.467087,-0.047851563,-0.15435791,-0.47187805,17.640686,7.797241,-51.693726,
4706936959784,0.8851929,1.8326721,7.3162994,-0.052642822,-0.093307495,-0.48719788,17.640686,7.797241,-51.693726,
4706941995184,0.7338257,1.742569,7.0355377,-0.051956177,-0.037994385,-0.4982605,16.90979,7.9727173,-51.182556,
4706947030585,0.59721375,1.7404327,6.7460175,-0.04676819,0.015029907,-0.5042877,16.90979,7.9727173,-51.182556,
4706952065985,0.484787,1.7877502,6.4903717,-0.039260864,0.060653687,-0.5036926,16.90979,7.9727173,-51.182556,
4706957101385,0.48364258,1.8177338,6.425232,-0.036499023,0.097473145,-0.49827576,16.90979,7.9727173,-51.182556,
4706962136786,0.6354675,1.8878632,6.5056458,-0.037078857,0.120651245,-0.4900818,16.603088,6.8496704,-52.0813,
4706967172186,0.7787781,1.9330597,6.576935,-0.034744263,0.12579346,-0.4813385,16.603088,6.8496704,-52.0813,
4706972207587,0.7405548,1.9440155,6.717453,-0.023498535,0.11701965,-0.4788208,16.603088,6.8496704,-52.0813,
4706977242987,0.55851746,1.9195862,6.7612305,0.006439209,0.09025574,-0.4812317,16.603088,6.8496704,-52.0813,
4706982278387,0.30485535,1.8629608,6.594757,0.0554657,0.046401978,-0.48735046,15.975952,6.692505,-52.233887,
4706987313788,0.13804626,1.8001862,6.5196075,0.11328125,-0.0059661865,-0.4900818,15.975952,6.692505,-52.233887,
4706992349188,0.07736206,1.7700653,6.3522034,0.16621399,-0.055404663,-0.48353577,15.975952,6.692505,-52.233887,
4706997384588,2.1362305E-4,1.6987457,6.3339996,0.20181274,-0.08772278,-0.46392822,15.975952,6.692505,-52.233887,
4707002419989,-0.01399231,1.8009033,6.335495,0.22109985,-0.10394287,-0.43797302,15.792847,7.2296143,-51.394653,
4707007455389,0.12782288,1.8465576,6.4230957,0.2368164,-0.11514282,-0.40670776,15.792847,7.2296143,-51.394653,
4707012490790,0.23570251,1.8816986,6.5742188,0.24674988,-0.12495422,-0.3762207,15.792847,7.2296143,-51.394653,
4707017526190,0.3607025,1.9685059,6.6056976,0.25442505,-0.13020325,-0.34890747,16.43219,8.052063,-50.238037,
4707022561590,0.50187683,2.0872192,6.5849304,0.26190186,-0.12208557,-0.3262024,16.43219,8.052063,-50.238037,
4707027596991,0.6881561,2.2045593,6.6933746,0.26489258,-0.10342407,-0.310318,16.43219,8.052063,-50.238037,
4707032632391,0.6938629,2.3059845,6.8107452,0.26385498,-0.0821228,-0.30126953,16.43219,8.052063,-50.238037,
4707037667792,0.6521454,2.3079987,6.8826294,0.2566986,-0.05491638,-0.30418396,16.16211,7.7819824,-51.197815,
4707042703192,0.5844116,2.3442383,7.034073,0.24908447,-0.027832031,-0.3117981,16.16211,7.7819824,-51.197815,
4707047738592,0.5904999,2.3843842,7.2011414,0.24253845,-0.0026855469,-0.3188324,16.16211,7.7819824,-51.197815,
4707052773993,0.5786133,2.3824158,7.476227,0.24360657,0.014755249,-0.32173157,16.16211,7.7819824,-51.197815,
4707057809393,0.49432373,2.3809967,7.58519,0.25045776,0.025482178,-0.32337952,15.733337,6.9869995,-52.615356,
4707062844794,0.3065796,2.3896332,7.6953125,0.26000977,0.03050232,-0.32658386,15.733337,6.9869995,-52.615356,
4707067880194,0.22706604,2.4612732,7.674103,0.27833557,0.03463745,-0.3230133,15.733337,6.9869995,-52.615356,
4707072915594,0.1391449,2.5321045,7.59346,0.29467773,0.033828735,-0.31347656,15.733337,6.9869995,-52.615356,
4707077950995,0.050811768,2.5765991,7.58992,0.31254578,0.02281189,-0.2975769,15.57312,6.5063477,-53.086853,
4707082986395,-0.08091736,2.5652466,7.7053223,0.33270264,0.0061798096,-0.27957153,15.57312,6.5063477,-53.086853,
4707088021796,-0.18916321,2.6141357,7.811447,0.34803772,-0.019897461,-0.26011658,15.57312,6.5063477,-53.086853,
4707093057196,-0.18618774,2.682602,7.9030457,0.3625183,-0.05845642,-0.2386322,15.57312,6.5063477,-53.086853,
4707098092596,-0.24395752,2.7545013,8.161453,0.37934875,-0.110961914,-0.21104431,16.47644,5.8029175,-52.20337,
4707103127997,-0.29174805,2.791031,8.526291,0.39421082,-0.16520691,-0.1822815,16.47644,5.8029175,-52.20337,
4707108163397,-0.32798767,2.8098602,9.017899,0.410141,-0.21742249,-0.15235901,16.47644,5.8029175,-52.20337,
4707113198797,-0.39076233,2.843979,9.476639,0.43051147,-0.2597351,-0.122283936,16.47644,5.8029175,-52.20337,
4707118234198,-0.40480042,2.9156952,9.774063,0.45542908,-0.29019165,-0.09370422,16.708374,5.9188843,-51.57776,
4707123269598,-0.26200867,3.0737152,9.87912,0.489151,-0.30949402,-0.06227112,16.708374,5.9188843,-51.57776,
4707128304999,0.037582397,3.2961884,9.921387,0.5333252,-0.31726074,-0.026428223,16.708374,5.9188843,-51.57776,
4707133340399,0.331604,3.4844818,9.962585,0.5753174,-0.31944275,0.0029907227,16.708374,5.9188843,-51.57776,
4707138375799,0.48016357,3.5929108,9.828995,0.61172485,-0.31932068,0.020629883,16.43219,6.335449,-51.57776,
4707143411200,0.5134125,3.6381989,9.502686,0.6431732,-0.32250977,0.023788452,16.43219,6.335449,-51.57776,
4707148446600,0.56422424,3.6929016,9.057419,0.666275,-0.33561707,0.017181396,16.43219,6.335449,-51.57776,
4707153482001,0.70240784,3.8353424,8.608292,0.6702423,-0.3598175,0.006668091,16.43219,6.335449,-51.57776,
4707158517401,0.87275696,3.9676514,8.3888855,0.63861084,-0.38972473,-0.0045776367,15.649414,5.999756,-52.775574,
4707163552801,0.95700073,4.014511,8.587463,0.570282,-0.4190979,-0.020248413,15.649414,5.999756,-52.775574,
4707168588202,0.89512634,3.9282074,9.163544,0.47061157,-0.45355225,-0.04307556,15.649414,5.999756,-52.775574,
4707173623602,0.73983765,3.7898254,9.950867,0.35525513,-0.49076843,-0.07267761,15.649414,5.999756,-52.775574,
4707178659003,0.48831177,3.5949554,10.777008,0.2450409,-0.5188904,-0.09983826,15.229797,5.366516,-52.537537,
4707183694403,0.19311523,3.3269958,11.667191,0.13772583,-0.53596497,-0.12104797,15.229797,5.366516,-52.537537,
4707188729803,0.03340149,3.1114502,12.607101,0.04559326,-0.5322113,-0.12689209,15.229797,5.366516,-52.537537,
4707193765204,-0.032440186,2.882492,13.669403,-0.031402588,-0.5026245,-0.117263794,15.229797,5.366516,-52.537537,
4707198800604,-0.110565186,2.7706757,14.81752,-0.0904541,-0.4487152,-0.09651184,15.229797,5.1330566,-52.0813,
4707203836004,-0.12414551,2.7041168,15.732666,-0.122283936,-0.3751068,-0.0657959,15.229797,5.1330566,-52.0813,
4707208871405,-0.12361145,2.6488953,16.415741,-0.122039795,-0.29022217,-0.030700684,15.229797,5.1330566,-52.0813,
4707213906805,-0.20976257,2.6187592,16.55017,-0.08239746,-0.17831421,0.0121154785,15.229797,5.1330566,-52.0813,
4707218942206,-0.22769165,2.583313,16.30864,-0.013534546,-0.060562134,0.054870605,14.370728,4.763794,-52.200317,
4707223977606,-0.17765808,2.6725464,15.804855,0.068344116,0.062423706,0.10140991,14.370728,4.763794,-52.200317,
4707229013006,-0.14888,2.7631378,15.049438,0.15304565,0.1804657,0.15019226,14.370728,4.763794,-52.200317,
4707234048407,-0.10020447,2.7658844,14.341858,0.22781372,0.28485107,0.19612122,14.370728,4.763794,-52.200317,
4707239083807,-0.0075683594,3.018631,13.437073,0.28001404,0.37139893,0.23136902,14.897156,4.244995,-51.88446,
4707244119208,0.46746826,3.3320007,12.8582,0.31602478,0.45022583,0.2657013,14.897156,4.244995,-51.88446,
4707249154608,0.7170105,3.7025452,12.49791,0.31495667,0.50445557,0.29159546,14.897156,4.244995,-51.88446,
4707254190008,0.7223358,3.8614197,12.086945,0.2984314,0.53157043,0.2950287,15.229797,4.1030884,-51.745605,
4707259225409,0.6467438,3.8251953,11.568954,0.27902222,0.5213165,0.2725525,15.229797,4.1030884,-51.745605,
4707264260809,0.50053406,3.7012634,11.03302,0.26182556,0.48353577,0.23753357,15.229797,4.1030884,-51.745605,
4707269296210,0.23052979,3.7026672,10.613968,0.23266602,0.4352417,0.19969177,15.229797,4.1030884,-51.745605,
4707274331610,-0.008346558,3.672577,10.4655,0.17614746,0.37121582,0.15701294,15.229797,3.565979,-50.70038,
4707279367010,-0.2160492,3.5884705,10.583328,0.101242065,0.31536865,0.123703,15.229797,3.565979,-50.70038,
4707284402411,-0.30101013,3.3471222,10.836258,0.004699707,0.2668152,0.100357056,15.229797,3.565979,-50.70038,
4707289437811,-0.39344788,3.1513214,11.348892,-0.10520935,0.23623657,0.082336426,15.229797,3.565979,-50.70038,
4707294473212,-0.52153015,2.9326782,11.890152,-0.21670532,0.22361755,0.07281494,14.68811,2.8747559,-51.460266,
4707299508612,-0.6769104,2.65419,12.400345,-0.31448364,0.22782898,0.06954956,14.68811,2.8747559,-51.460266,
4707304544012,-0.77915955,2.3930511,12.655624,-0.40092468,0.2437439,0.07229614,14.68811,2.8747559,-51.460266,
4707309579413,-0.9169159,2.1529388,12.872803,-0.45210266,0.25534058,0.08140564,14.68811,2.8747559,-51.460266,
4707314614813,-1.0862122,1.8934631,13.029022,-0.47372437,0.25595093,0.09666443,14.543152,2.7297974,-51.745605,
4707319650213,-1.2723999,1.6395111,13.208176,-0.46780396,0.24110413,0.11949158,14.543152,2.7297974,-51.745605,
4707324685614,-1.3998566,1.3698273,13.549728,-0.43655396,0.20794678,0.14888,14.543152,2.7297974,-51.745605,
4707329721014,-1.3143616,1.2234344,13.86705,-0.37994385,0.16012573,0.18650818,14.543152,2.7297974,-51.745605,
4707334756415,-1.0809326,1.22966,13.960129,-0.2895813,0.104156494,0.23721313,15.559387,2.87323,-50.186157,
4707339791815,-0.8250427,1.2819672,13.803192,-0.18386841,0.06544495,0.29130554,15.559387,2.87323,-50.186157,
4707344827215,-0.66397095,1.3276367,13.351318,-0.06994629,0.05152893,0.33979797,15.559387,2.87323,-50.186157,
4707349862616,-0.56166077,1.4356842,12.688095,0.033416748,0.06808472,0.3764038,15.559387,2.87323,-50.186157,
4707354898016,-0.5050812,1.5122528,12.018768,0.11361694,0.11009216,0.40274048,16.036987,3.4851074,-52.468872,
4707359933417,-0.45684814,1.5269012,11.2625885,0.17034912,0.16766357,0.42211914,16.036987,3.4851074,-52.468872,
4707364968817,-0.3407898,1.6345215,10.496277,0.20265198,0.23449707,0.4363861,16.036987,3.4851074,-52.468872,
4707370004217,-0.30421448,1.7735443,9.87059,0.2104187,0.2993164,0.44781494,16.036987,3.4851074,-52.468872,
4707375039618,-0.31303406,1.851059,9.2938385,0.20529175,0.3497162,0.45281982,16.088867,3.5888672,-52.919006,
4707380075018,-0.29315186,1.9106445,8.729736,0.19458008,0.37843323,0.45098877,16.088867,3.5888672,-52.919006,
4707385110419,-0.24967957,1.9299774,8.176147,0.18209839,0.38485718,0.44670105,16.088867,3.5888672,-52.919006,
4707390145819,-0.23225403,1.9732513,7.7490234,0.16513062,0.3716278,0.44303894,16.088867,3.5888672,-52.919006,
4707395181219,-0.19673157,2.0363464,7.2389526,0.14273071,0.34057617,0.43873596,16.088867,3.9001465,-51.08795,
4707400216620,-0.12454224,2.0164032,6.7326508,0.117614746,0.3030243,0.431839,16.088867,3.9001465,-51.08795,
4707405252020,-0.05935669,2.031189,6.4621735,0.08633423,0.26634216,0.42640686,16.088867,3.9001465,-51.08795,
4707410287421,0.047714233,2.142868,6.315735,0.038848877,0.237854,0.4182434,16.088867,3.9001465,-51.08795,
4707415322821,0.23513794,2.276657,6.264328,-0.021347046,0.22125244,0.40675354,17.816162,3.4591675,-51.060486,
4707420358221,0.33961487,2.2296448,6.4178925,-0.09579468,0.21522522,0.38934326,17.816162,3.4591675,-51.060486,
4707425393622,0.30941772,2.085144,6.594681,-0.17214966,0.21466064,0.36386108,17.816162,3.4591675,-51.060486,
4707430429022,0.17163086,1.9918518,6.7253265,-0.24333191,0.22314453,0.33059692,17.816162,3.4591675,-51.060486,
4707435464422,0.06314087,1.8500061,6.8611298,-0.3052063,0.24534607,0.2992096,17.977905,3.4164429,-51.075745,
4707440499823,-0.0035705566,1.7113037,7.109329,-0.35908508,0.27766418,0.27308655,17.977905,3.4164429,-51.075745,
4707445535223,-0.01234436,1.6535034,7.411377,-0.40063477,0.3111725,0.25546265,17.977905,3.4164429,-51.075745,
4707450570624,-0.054641724,1.6042023,7.5823517,-0.4332428,0.34062195,0.23803711,17.977905,3.4164429,-51.075745,
4707455606024,-0.019699097,1.5992737,7.616989,-0.44352722,0.35255432,0.22155762,17.138672,3.5842896,-50.58441,
4707460641424,-0.10417175,1.5430603,7.476959,-0.42845154,0.3446045,0.20515442,17.138672,3.5842896,-50.58441,
4707465676825,-0.19006348,1.5097809,7.1088257,-0.40296936,0.3277588,0.18478394,17.138672,3.5842896,-50.58441,
4707470712225,-0.28677368,1.5044403,6.703293,-0.37876892,0.30714417,0.167099,17.138672,3.5842896,-50.58441,
4707475747626,-0.43006897,1.4109497,6.269562,-0.36331177,0.28097534,0.1538086,17.790222,3.251648,-50.90027,
4707480783026,-0.5737152,1.195816,6.1376495,-0.35569763,0.24298096,0.141922,17.790222,3.251648,-50.90027,
4707485818426,-0.66304016,1.0803528,6.3548737,-0.3624878,0.2002716,0.1355896,17.790222,3.251648,-50.90027,
4707490853827,-0.80259705,1.0057983,6.4392395,-0.37750244,0.1491394,0.13607788,17.790222,3.251648,-50.90027,
4707495889227,-0.7164917,1.0923309,6.421646,-0.3869934,0.10423279,0.14533997,17.790222,3.251648,-50.90027,
4707500924628,-0.66796875,1.1616516,6.3776245,-0.391922,0.06945801,0.1617279,17.790222,3.251648,-50.90027,
4707505960028,-0.5966797,1.1123657,6.3806763,-0.39167786,0.036605835,0.17770386,17.790222,3.251648,-50.90027,
4707510995428,-0.5424042,1.0566864,6.508499,-0.38537598,-0.0051879883,0.1885376,17.788696,3.2791138,-50.897217,
4707516030829,-0.5155029,1.0181885,6.547943,-0.37580872,-0.040496826,0.19999695,17.788696,3.2791138,-50.897217,
4707521066229,-0.55960083,0.9995575,6.374115,-0.36158752,-0.063568115,0.20913696,17.788696,3.2791138,-50.897217,
4707526101629,-0.5324402,1.1882172,6.1754,-0.34742737,-0.069869995,0.22090149,17.788696,3.2791138,-50.897217,
4707531137030,-0.45246887,1.244461,5.9793243,-0.33502197,-0.06619263,0.23574829,16.972351,5.1452637,-50.405884,
4707536172430,-0.1867218,1.3270721,5.79364,-0.33117676,-0.057373047,0.24908447,16.972351,5.1452637,-50.405884,
4707541207831,0.12034607,1.4738312,5.6763763,-0.34161377,-0.026977539,0.26124573,16.972351,5.1452637,-50.405884,
4707546243231,0.39772034,1.5594177,5.687256,-0.36216736,0.012252808,0.2646637,16.972351,5.1452637,-50.405884,
4707551278631,0.4814148,1.5388031,5.898758,-0.38375854,0.048217773,0.25726318,17.634583,5.4763794,-50.405884,
4707556314032,0.2723236,1.5016632,6.076889,-0.4012146,0.07548523,0.24021912,17.634583,5.4763794,-50.405884,
4707561349432,0.060424805,1.5334473,6.2158813,-0.41151428,0.09786987,0.21820068,17.634583,5.4763794,-50.405884,
4707566384833,-0.061920166,1.5264435,6.3115845,-0.40768433,0.11276245,0.19941711,17.634583,5.4763794,-50.405884,
4707571420233,-0.18103027,1.4865265,6.437042,-0.3898468,0.11894226,0.188797,17.619324,5.3756714,-50.47455,
4707576455633,-0.30162048,1.4165039,6.763504,-0.3661499,0.11462402,0.18777466,17.619324,5.3756714,-50.47455,
4707581491034,-0.39413452,1.3851929,7.284561,-0.33709717,0.10166931,0.19137573,17.619324,5.3756714,-50.47455,
4707586526434,-0.43997192,1.3945465,7.702179,-0.29890442,0.0909729,0.19981384,17.619324,5.3756714,-50.47455,
4707591561835,-0.48147583,1.4513245,7.7938538,-0.24980164,0.08900452,0.21434021,17.532349,4.4158936,-51.27716,
4707596597235,-0.53956604,1.5586853,7.4780273,-0.18728638,0.09576416,0.23428345,17.532349,4.4158936,-51.27716,
4707601632635,-0.49531555,1.646698,7.039398,-0.11531067,0.108810425,0.25639343,17.532349,4.4158936,-51.27716,
4707606668036,-0.3189392,1.7000275,6.734543,-0.057861328,0.12654114,0.27890015,17.532349,4.4158936,-51.27716,
4707611703436,-0.17254639,1.7991943,6.4614105,-0.028121948,0.14665222,0.30166626,18.148804,5.6488037,-51.57776,
4707616738837,-0.094833374,1.9442596,6.2500305,-0.020019531,0.16247559,0.32032776,18.148804,5.6488037,-51.57776,
4707621774237,0.036727905,2.1128387,6.0145874,-0.026519775,0.1719513,0.3310852,18.148804,5.6488037,-51.57776,
4707626809637,0.2424469,2.3066254,5.787613,-0.041763306,0.16926575,0.33688354,18.148804,5.6488037,-51.57776,
4707631845038,0.49002075,2.5322723,5.789612,-0.06422424,0.1499939,0.3343048,18.02063,5.673218,-51.50299,
4707636880438,0.5916748,2.6398773,5.952179,-0.09664917,0.11502075,0.32118225,18.02063,5.673218,-51.50299,
4707641915838,0.5306549,2.7161865,5.998398,-0.1365509,0.06619263,0.29493713,18.02063,5.673218,-51.50299,
4707646951239,0.5081024,2.6831818,6.193802,-0.18029785,0.013885498,0.25975037,18.02063,5.673218,-51.50299,
4707651986639,0.4916687,2.5994873,6.3881683,-0.22709656,-0.032714844,0.22537231,17.260742,5.847168,-50.935364,
4707657022040,0.5252533,2.5085144,6.771576,-0.28735352,-0.073532104,0.19215393,17.260742,5.847168,-50.935364,
4707662057440,0.48150635,2.431427,7.3404694,-0.35453796,-0.103378296,0.16194153,17.260742,5.847168,-50.935364,
4707667092840,0.37983704,2.2455444,8.268814,-0.4223175,-0.12289429,0.13330078,17.260742,5.847168,-50.935364,
4707672128241,0.17427063,2.0477905,9.330399,-0.4827118,-0.13497925,0.10409546,17.118835,5.9921265,-50.238037,
4707677163641,-0.072647095,1.9118042,10.210449,-0.52345276,-0.1376648,0.08097839,17.118835,5.9921265,-50.238037,
4707682199042,-0.34976196,1.7006989,10.895004,-0.5303955,-0.12823486,0.06832886,17.118835,5.9921265,-50.238037,
4707687234442,-0.485672,1.6492004,11.179703,-0.4997406,-0.103500366,0.067108154,17.118835,5.9921265,-50.238037,
4707692269842,-0.5084381,1.7884521,11.32901,-0.4396057,-0.06904602,0.081954956,17.228699,6.248474,-50.631714,
4707697305243,-0.539032,1.8747711,11.400909,-0.35902405,-0.039031982,0.10644531,17.228699,6.248474,-50.631714,
4707702340643,-0.60835266,1.8848267,11.356354,-0.2681427,-0.02508545,0.13044739,17.228699,6.248474,-50.631714,
4707707376044,-0.50886536,1.983017,10.952164,-0.17304993,-0.024597168,0.15242004,17.228699,6.248474,-50.631714,
4707712411444,-0.2846222,2.1622772,10.246201,-0.08784485,-0.03060913,0.169693,17.434692,7.0739746,-51.887512,
4707717446844,-0.1026001,2.284546,9.542862,0.0030670166,-0.0524292,0.18933105,17.434692,7.0739746,-51.887512,
4707722482245,0.026519775,2.4517975,9.086487,0.06474304,-0.09082031,0.1995697,17.434692,7.0739746,-51.887512,
4707727517645,0.23143005,2.5889587,8.725311,0.09291077,-0.15045166,0.19683838,16.775513,6.678772,-51.24359,
4707732553046,0.48283386,2.7378693,8.490616,0.088638306,-0.22070313,0.1859436,16.775513,6.678772,-51.24359,
4707737588446,0.6296387,2.8650208,8.506165,0.04827881,-0.2841797,0.16319275,16.775513,6.678772,-51.24359,
4707742623846,0.8622894,2.9216003,8.984802,-0.027755737,-0.3293152,0.13294983,16.775513,6.678772,-51.24359,
4707747659247,0.98350525,2.890747,9.559326,-0.15414429,-0.3475647,0.087509155,16.775513,6.390381,-51.148987,
4707752694647,1.0897522,2.7440948,10.309143,-0.29264832,-0.33955383,0.032470703,16.775513,6.390381,-51.148987,
4707757730047,1.166565,2.5600739,11.150772,-0.43063354,-0.31243896,-0.025680542,16.775513,6.390381,-51.148987,
4707762765448,1.1399841,2.2778625,11.867401,-0.5552521,-0.27519226,-0.08546448,16.775513,6.390381,-51.148987,
4707767800848,0.91244507,1.8658905,12.41449,-0.65371704,-0.2288208,-0.14682007,17.027283,6.5078735,-50.660706,
4707772836249,0.4664154,1.478302,13.049515,-0.7221832,-0.18016052,-0.20146179,17.027283,6.5078735,-50.660706,
4707777871649,0.018997192,1.2419434,13.922104,-0.77230835,-0.13186646,-0.25091553,17.027283,6.5078735,-50.660706,
4707782907049,-0.3619995,0.92559814,14.989716,-0.79519653,-0.09927368,-0.28230286,17.027283,6.5078735,-50.660706,
4707787942450,-0.6349182,0.60672,15.866135,-0.7879791,-0.07595825,-0.29309082,17.634583,8.566284,-50.07019,
4707792977850,-0.8279419,0.41348267,16.23439,-0.73703,-0.055496216,-0.28157043,17.634583,8.566284,-50.07019,
4707798013251,-0.9219208,0.28884888,15.959045,-0.6430359,-0.033081055,-0.25473022,17.634583,8.566284,-50.07019,
4707803048651,-0.8145447,0.3632965,15.2152405,-0.51794434,-0.009674072,-0.21430969,17.634583,8.566284,-50.07019,
4707808084051,-0.58084106,0.5193176,14.271988,-0.37623596,0.012298584,-0.15966797,16.984558,8.035278,-51.04828,
4707813119452,-0.23823547,0.6909332,13.361145,-0.26431274,0.031936646,-0.10809326,16.984558,8.035278,-51.04828,
4707818154852,0.13772583,0.871521,12.680695,-0.19030762,0.0471344,-0.06590271,16.984558,8.035278,-51.04828,
4707823190253,0.54756165,1.0537262,12.140228,-0.15611267,0.05126953,-0.0382843,16.984558,8.035278,-51.04828,
4707828225653,1.0521088,1.2974854,11.692322,-0.1544342,0.04714966,-0.025817871,15.867615,8.006287,-51.956177,
4707833261053,1.5402222,1.5523834,11.420151,-0.1763916,0.03590393,-0.031921387,15.867615,8.006287,-51.956177,
4707838296454,1.9000397,1.7315521,11.281296,-0.21566772,0.01423645,-0.06352234,15.867615,8.006287,-51.956177,
4707843331854,2.0375824,1.7687073,11.336014,-0.26786804,-0.008422852,-0.11769104,15.867615,8.006287,-51.956177,
4707848367254,1.9462891,1.6302948,11.6527405,-0.3368988,-0.02218628,-0.19108582,16.088867,9.768677,-50.238037,
4707853402655,1.7223969,1.4615784,12.024597,-0.4192505,-0.024353027,-0.27648926,16.088867,9.768677,-50.238037,
4707858438055,1.4479828,1.2924347,12.259338,-0.5016937,-0.009628296,-0.35786438,16.088867,9.768677,-50.238037,
4707863473456,1.2002869,0.9983368,12.484848,-0.5853119,0.024887085,-0.43478394,16.088867,9.768677,-50.238037,
4707868508856,0.85112,0.5901489,12.794586,-0.6525421,0.056884766,-0.49957275,16.578674,9.416199,-50.852966,
4707873544256,0.40151978,0.17501831,13.195389,-0.6909485,0.06286621,-0.5503235,16.578674,9.416199,-50.852966,
4707878579657,-0.09637451,-0.16177368,13.580444,-0.69799805,0.039535522,-0.58099365,16.578674,9.416199,-50.852966,
4707883615057,-0.40434265,-0.387146,13.93338,-0.6697235,-0.0054626465,-0.590683,16.578674,9.416199,-50.852966,
4707888650458,-0.45643616,-0.5006714,14.1701355,-0.6132202,-0.06274414,-0.57743835,17.144775,9.489441,-51.745605,
4707893685858,-0.37332153,-0.49778748,14.198364,-0.52189636,-0.1335144,-0.5420685,17.144775,9.489441,-51.745605,
4707898721258,-0.23457336,-0.41049194,13.81604,-0.41238403,-0.20185852,-0.4970398,17.144775,9.489441,-51.745605,
4707903756659,-0.081710815,-0.2614441,13.211533,-0.30174255,-0.2482605,-0.44847107,17.144775,9.489441,-51.745605,
4707908792059,0.29907227,-0.17622375,12.645187,-0.21118164,-0.26167297,-0.40649414,16.946411,10.284424,-51.745605,
4707913827460,0.58229065,-0.17092896,12.548752,-0.15490723,-0.2479248,-0.37271118,16.946411,10.284424,-51.745605,
4707918862860,0.719223,-0.044403076,12.306168,-0.13417053,-0.21903992,-0.35165405,16.946411,10.284424,-51.745605,
4707923898260,0.80223083,0.12275696,11.779419,-0.1274414,-0.16911316,-0.34051514,16.946411,10.284424,-51.745605,
4707928933661,0.94148254,0.19216919,11.142609,-0.12904358,-0.09440613,-0.33972168,16.539001,11.01532,-51.664734,
4707933969061,1.0199585,0.17616272,10.592087,-0.1434784,-0.00289917,-0.34379578,16.539001,11.01532,-51.664734,
4707939004462,0.9689789,0.16867065,10.122726,-0.17033386,0.08279419,-0.35551453,16.539001,11.01532,-51.664734,
4707944039862,0.8922272,0.14382935,9.743515,-0.20606995,0.15377808,-0.3685608,16.539001,11.01532,-51.664734,
4707949075262,0.8517151,0.23376465,9.370438,-0.24557495,0.210495,-0.3837433,15.588379,11.660767,-51.90277,
4707954110663,0.71829224,0.24681091,9.197647,-0.28883362,0.25863647,-0.3977661,15.588379,11.660767,-51.90277,
4707959146063,0.5019989,0.17062378,8.988235,-0.3251648,0.28701782,-0.40615845,15.588379,11.660767,-51.90277,
4707964181463,0.3839264,0.11312866,8.716202,-0.3481903,0.29815674,-0.4087677,15.058899,11.485291,-52.249146,
4707969216864,0.2520752,0.07623291,8.662338,-0.36106873,0.29904175,-0.40344238,15.058899,11.485291,-52.249146,
4707974252264,0.08418274,-0.0026855469,8.664383,-0.3708191,0.28804016,-0.38972473,15.058899,11.485291,-52.249146,
4707979287665,-0.027542114,0.049987793,8.569672,-0.37245178,0.26864624,-0.3705902,15.058899,11.485291,-52.249146,
4707984323065,-0.08746338,0.044143677,8.427307,-0.3671112,0.24839783,-0.3386383,16.348267,11.853027,-50.98877,
4707989358465,-0.097335815,0.06465149,8.266357,-0.35321045,0.2334137,-0.30026245,16.348267,11.853027,-50.98877,
4707994393866,0.0054016113,0.09989929,8.241837,-0.3407135,0.2193451,-0.25909424,16.348267,11.853027,-50.98877,
4707999429266,0.19247437,0.22521973,8.386948,-0.33035278,0.2052002,-0.21697998,16.348267,11.853027,-50.98877,
4708004464667,0.5349121,0.45169067,8.58107,-0.31730652,0.18603516,-0.1789856,17.367554,11.889648,-50.177002,
4708009500067,0.88690186,0.74967957,8.52478,-0.29701233,0.159729,-0.14936829,17.367554,11.889648,-50.177002,
4708014535467,0.9386444,0.8581848,8.313004,-0.25628662,0.12294006,-0.13421631,17.367554,11.889648,-50.177002,
4708019570868,0.8548126,0.86486816,7.92659,-0.20602417,0.078933716,-0.13989258,17.367554,11.889648,-50.177002,
4708024606268,0.8493347,0.89538574,7.5898438,-0.15922546,0.032058716,-0.15446472,17.289734,11.657715,-50.405884,
4708029641669,0.878067,0.9061279,7.299942,-0.12315369,-0.018081665,-0.17036438,17.289734,11.657715,-50.405884,
4708034677069,0.82440186,0.85858154,7.106888,-0.10101318,-0.074539185,-0.18270874,17.289734,11.657715,-50.405884,
4708039712469,0.810318,0.82606506,7.096451,-0.095199585,-0.13049316,-0.1933136,17.289734,11.657715,-50.405884,
4708044747870,0.8840637,0.86650085,7.432358,-0.114593506,-0.1695404,-0.20150757,17.601013,13.21106,-50.708008,
4708049783270,0.92922974,0.9202423,7.800415,-0.15890503,-0.17869568,-0.20756531,17.601013,13.21106,-50.708008,
4708054818671,0.9487457,0.9220581,8.041092,-0.21549988,-0.15579224,-0.2135315,17.601013,13.21106,-50.708008,
4708059854071,0.92718506,0.9158478,8.155731,-0.27122498,-0.105773926,-0.22009277,17.601013,13.21106,-50.708008,
4708064889471,0.81970215,0.8956909,8.114456,-0.3164673,-0.04548645,-0.2268982,18.225098,14.231873,-50.291443,
4708069924872,0.6214447,0.7877655,8.058853,-0.34873962,0.012939453,-0.23399353,18.225098,14.231873,-50.291443,
4708074960272,0.38105774,0.65586853,8.138672,-0.35987854,0.048217773,-0.23777771,18.225098,14.231873,-50.291443,
4708079995672,0.15550232,0.54145813,8.284058,-0.3517456,0.05155945,-0.2338562,18.225098,14.231873,-50.291443,
4708085031073,0.014877319,0.47705078,8.263672,-0.32585144,0.032424927,-0.22036743,18.492126,14.231873,-49.902344,
4708090066473,0.091430664,0.5461731,8.086029,-0.28329468,0.00491333,-0.19619751,18.492126,14.231873,-49.902344,
4708095101874,0.28601074,0.65800476,7.870987,-0.23606873,-0.021591187,-0.16386414,18.492126,14.231873,-49.902344,
4708100137274,0.50479126,0.7777252,7.7663727,-0.1856842,-0.050735474,-0.12680054,18.492126,14.231873,-49.902344,
4708105172674,0.6941681,0.9064636,7.639389,-0.13897705,-0.07800293,-0.09576416,16.539001,13.887024,-50.46234,
4708110208075,0.8149719,1.0161743,7.264023,-0.09919739,-0.10002136,-0.076934814,16.539001,13.887024,-50.46234,
4708115243475,0.9235687,1.1308136,6.782196,-0.063323975,-0.1184082,-0.06794739,16.539001,13.887024,-50.46234,
4708120278876,1.0556793,1.2421112,6.539871,-0.03413391,-0.14152527,-0.065460205,16.539001,13.887024,-50.46234,
4708125314276,1.052063,1.3368225,6.475815,-0.016815186,-0.17544556,-0.069869995,16.270447,14.183044,-50.74005,
4708130349676,1.1622925,1.4012756,6.648224,-0.0060272217,-0.22285461,-0.08506775,16.270447,14.183044,-50.74005,
4708135385077,1.1577759,1.4333649,6.8123016,-6.713867E-4,-0.26464844,-0.10282898,16.270447,14.183044,-50.74005,
4708140420477,1.0052948,1.37323,6.8478546,0.0045776367,-0.2939148,-0.12205505,16.270447,14.183044,-50.74005,
4708145455878,0.9134369,1.3530273,6.9533997,0.013763428,-0.31011963,-0.14266968,16.603088,14.404297,-50.74005,
4708150491278,0.71255493,1.3476563,7.156494,0.02355957,-0.3157196,-0.15861511,16.603088,14.404297,-50.74005,
4708155526678,0.47784424,1.3028259,7.0290985,0.034622192,-0.30984497,-0.17115784,16.603088,14.404297,-50.74005,
4708160562079,0.36177063,1.2105408,6.870636,0.045288086,-0.28694153,-0.17803955,16.603088,14.404297,-50.74005,
4708165597479,0.2132721,1.1298981,7.054367,0.049057007,-0.24230957,-0.17332458,17.106628,14.656067,-50.001526,
4708170632879,0.025115967,1.0475159,7.3643646,0.03878784,-0.18411255,-0.16371155,17.106628,14.656067,-50.001526,
4708175668280,-0.12562561,1.052597,7.6672516,0.018356323,-0.11793518,-0.1486206,17.106628,14.656067,-50.001526,
4708180703680,-0.10531616,1.0977478,7.725952,0.018356323,-0.11793518,-0.1486206,17.106628,14.656067,-50.001526,
4708185739081,-0.058792114,1.1073151,8.067261,-0.001876831,0.0335083,-0.093048096,16.400146,14.619446,-50.354004,
4708190774481,-0.0039367676,1.2338867,8.255859,0.0045318604,0.11740112,-0.05581665,16.400146,14.619446,-50.354004,
4708195809881,0.1317749,1.3107147,8.103424,0.026931763,0.1860199,-0.024261475,16.400146,14.619446,-50.354004,
4708200845282,0.3175354,1.4069214,7.727295,0.07003784,0.24179077,0.006790161,16.088867,14.575195,-50.572205,
4708205880682,0.46810913,1.5652008,7.205963,0.11593628,0.28659058,0.030639648,16.088867,14.575195,-50.572205,
4708210916083,0.6567688,1.707901,6.7864685,0.15211487,0.32330322,0.044769287,16.088867,14.575195,-50.572205,
4708215951483,0.8023529,1.8396301,6.5398254,0.16798401,0.34913635,0.050994873,16.088867,14.575195,-50.572205,
4708220986883,0.80033875,1.9112854,6.5388947,0.16847229,0.35430908,0.046020508,16.22467,14.985657,-50.97351,
4708226022284,0.76979065,1.9695587,6.5898438,0.16061401,0.3308258,0.028778076,16.22467,14.985657,-50.97351,
4708231057684,0.6816559,1.8937225,6.8481293,0.15185547,0.28511047,0.007217407,16.22467,14.985657,-50.97351,
4708236093085,0.6151581,1.8756714,7.2875366,0.14477539,0.22854614,-0.015716553,16.22467,14.985657,-50.97351,
4708241128485,0.468338,1.8389282,7.721695,0.14512634,0.1711731,-0.03327942,15.0177,14.399719,-49.32251,
4708246163885,0.17945862,1.773941,7.928406,0.1552887,0.11817932,-0.044570923,15.0177,14.399719,-49.32251,
4708251199286,-0.00579834,1.6910706,8.225311,0.17564392,0.07380676,-0.05026245,15.0177,14.399719,-49.32251,
4708256234686,-0.053253174,1.667633,8.540039,0.19096375,0.047561646,-0.04663086,15.0177,14.399719,-49.32251,
4708261270087,-0.041122437,1.6588287,8.854492,0.1985321,0.035507202,-0.03265381,14.715576,14.231873,-48.89679,
4708266305487,0.019561768,1.6289978,9.207962,0.20358276,0.038635254,-0.010940552,14.715576,14.231873,-48.89679,
4708271340887,0.124938965,1.631073,9.487793,0.20822144,0.05230713,0.0138549805,14.715576,14.231873,-48.89679,
4708276376288,0.255661,1.6773682,9.728455,0.21560669,0.071502686,0.038375854,14.715576,14.231873,-48.89679,
4708281411688,0.3151245,1.711029,9.812988,0.23130798,0.09687805,0.06088257,16.046143,14.379883,-50.48523,
4708286447088,0.26617432,1.7048187,9.839325,0.25242615,0.11946106,0.079437256,16.046143,14.379883,-50.48523,
4708291482489,0.17919922,1.6705017,9.852768,0.27372742,0.1359253,0.095840454,16.046143,14.379883,-50.48523,
4708296517889,0.17367554,1.678833,9.88089,0.29623413,0.14855957,0.11230469,16.046143,14.379883,-50.48523,
4708301553290,0.25808716,1.7178497,9.810333,0.31559753,0.15693665,0.1285553,16.11023,14.552307,-50.593567,
4708306588690,0.4185028,1.7768402,9.580841,0.32867432,0.16293335,0.14549255,16.11023,14.552307,-50.593567,
4708311624090,0.64682007,1.8196564,9.51091,0.3339386,0.16429138,0.16177368,16.11023,14.552307,-50.593567,
4708316659491,0.83277893,1.9129639,9.707764,0.32159424,0.16018677,0.17019653,16.11023,14.552307,-50.593567,
4708321694891,0.99942017,1.9894409,10.092926,0.2891388,0.15472412,0.17190552,16.088867,14.575195,-50.572205,
4708326730292,1.0965729,2.0098114,10.429977,0.2471466,0.15065002,0.16436768,16.088867,14.575195,-50.572205,
4708331765692,1.036438,1.9757538,10.780472,0.20741272,0.14619446,0.14628601,16.088867,14.575195,-50.572205,
4708336801092,0.9395294,1.8551941,11.147888,0.16906738,0.1399231,0.12081909,16.088867,14.575195,-50.572205,
4708341836493,0.7605591,1.6262512,11.534729,0.13665771,0.13018799,0.091674805,17.36145,13.619995,-51.815796,
4708346871893,0.523468,1.4025726,11.915115,0.11112976,0.11306763,0.06536865,17.36145,13.619995,-51.815796,
4708351907294,0.2861786,1.2598724,12.439056,0.09190369,0.08938599,0.045043945,17.36145,13.619995,-51.815796,
4708356942694,0.21417236,1.176651,13.020905,0.075286865,0.065963745,0.033111572,17.36145,13.619995,-51.815796,
4708361978094,0.19204712,1.128006,13.613541,0.06535339,0.052993774,0.02935791,17.300415,13.066101,-50.820923,
4708367013495,0.08308411,1.0811462,13.914261,0.063934326,0.051864624,0.029632568,17.300415,13.066101,-50.820923,
4708372048895,-0.07261658,1.0058746,13.948669,0.0748291,0.07009888,0.03251648,17.300415,13.066101,-50.820923,
4708377084296,-0.20980835,0.9299774,13.745605,0.0925293,0.10661316,0.03945923,17.300415,13.066101,-50.820923,
4708382119696,-0.23025513,0.9358673,13.35051,0.109176636,0.1542511,0.04989624,17.289734,13.031006,-50.74005,
4708387155096,-0.29800415,0.9986725,12.941116,0.120773315,0.2034607,0.06852722,17.289734,13.031006,-50.74005,
4708392190497,-0.28468323,1.026825,12.787506,0.13006592,0.23568726,0.0868988,17.289734,13.031006,-50.74005,
4708397225897,-0.3587494,0.9500427,12.829742,0.12843323,0.26036072,0.10673523,17.289734,13.031006,-50.74005,
4708402261297,-0.42042542,0.963501,12.5401,0.12413025,0.27090454,0.1222229,16.26892,12.690735,-52.067566,
4708407296698,-0.25126648,1.1285858,12.07724,0.12608337,0.27442932,0.13227844,16.26892,12.690735,-52.067566,
4708412332098,-0.10783386,1.2327728,11.730774,0.12922668,0.27015686,0.1473999,16.26892,12.690735,-52.067566,
4708417367499,-0.058166504,1.3140259,11.694656,0.12922668,0.27015686,0.1473999,16.26892,12.690735,-52.067566,
4708422402899,0.07130432,1.5063477,11.708145,0.08203125,0.2627716,0.14855957,16.941833,13.710022,-50.41504,
4708427438299,0.33911133,1.598053,11.802063,0.025543213,0.27268982,0.12713623,16.941833,13.710022,-50.41504,
4708432473700,0.35865784,1.616394,11.828232,-0.035614014,0.29377747,0.097732544,16.941833,13.710022,-50.41504,
4708437509100,0.2073822,1.4605865,11.751938,-0.09954834,0.33125305,0.055877686,16.941833,13.710022,-50.41504,
4708442544501,-0.20803833,1.1936798,11.668625,-0.16714478,0.3789673,0.0032348633,16.941833,13.710022,-50.41504,
4708447579901,-0.6841736,0.8493805,11.698639,-0.2345581,0.42314148,-0.0501709,16.941833,13.710022,-50.41504,
4708452615301,-1.388382,0.44152832,11.914276,-0.2957306,0.44999695,-0.091171265,16.941833,13.710022,-50.41504,
4708457650702,-1.9586182,0.07821655,12.137054,-0.35385132,0.4487152,-0.12013245,16.986084,13.664246,-50.376892,
4708462686102,-2.3129883,-0.21414185,12.581131,-0.39489746,0.42304993,-0.12110901,16.986084,13.664246,-50.376892,
4708467721503,-2.4056702,-0.3739624,12.8880005,-0.41700745,0.3741455,-0.09336853,16.986084,13.664246,-50.376892,
4708472756903,-2.393097,-0.47994995,13.137543,-0.4125061,0.3020935,-0.04560852,16.986084,13.664246,-50.376892,
4708477792303,-2.3548126,-0.5852051,13.384415,-0.38243103,0.21076965,0.014465332,18.214417,12.27417,-49.575806,
4708482827704,-2.2558289,-0.6437073,13.698364,-0.33088684,0.10643005,0.07701111,18.214417,12.27417,-49.575806,
4708487863104,-2.1685333,-0.6795349,13.842773,-0.25730896,-0.013137817,0.14813232,18.214417,12.27417,-49.575806,
4708492898504,-2.0036774,-0.6808624,13.960251,-0.18008423,-0.11454773,0.21620178,18.214417,12.27417,-49.575806,
4708497933905,-1.7881165,-0.6042328,13.916428,-0.101760864,-0.19613647,0.2817688,19.351196,14.060974,-49.734497,
4708502969305,-1.5050354,-0.48989868,13.704102,-0.024505615,-0.25387573,0.34318542,19.351196,14.060974,-49.734497,
4708508004706,-1.2509155,-0.33685303,13.202301,0.04710388,-0.28605652,0.39590454,19.351196,14.060974,-49.734497,
4708513040106,-0.99357605,-0.17933655,12.611862,0.11099243,-0.29382324,0.44067383,19.351196,14.060974,-49.734497,
4708518075506,-0.7287445,-0.002822876,12.171097,0.15939331,-0.28373718,0.47473145,19.332886,13.977051,-49.847412,
4708523110907,-0.57572937,0.10810852,11.716202,0.18708801,-0.26896667,0.49420166,19.332886,13.977051,-49.847412,
4708528146307,-0.5172272,0.14805603,11.256531,0.2052002,-0.25205994,0.500885,19.332886,13.977051,-49.847412,
4708533181708,-0.48661804,0.14463806,10.838104,0.20982361,-0.22512817,0.49752808,19.332886,13.977051,-49.847412,
4708538217108,-0.506897,0.16619873,10.509277,0.19485474,-0.18507385,0.4907074,19.198608,13.421631,-50.88806,
4708543252508,-0.54556274,0.20620728,10.270493,0.1634674,-0.13414001,0.4830475,19.198608,13.421631,-50.88806,
4708548287909,-0.5810394,0.21348572,10.140991,0.11993408,-0.07853699,0.4763794,19.198608,13.421631,-50.88806,
4708553323309,-0.6039734,0.2388916,10.081543,0.07608032,-0.026626587,0.47027588,19.198608,13.421631,-50.88806,
4708558358710,-0.56404114,0.32051086,9.933945,0.03755188,0.020904541,0.46507263,19.351196,15.090942,-50.74005,
4708563394110,-0.45220947,0.40293884,9.612152,0.009262085,0.05970764,0.46141052,19.351196,15.090942,-50.74005,
4708568429510,-0.31028748,0.4608612,9.277267,-0.006225586,0.082229614,0.45829773,19.351196,15.090942,-50.74005,
4708573464911,-0.3158722,0.499588,9.009979,-0.013473511,0.08432007,0.44921875,19.351196,15.090942,-50.74005,
4708578500311,-0.34779358,0.48442078,8.80246,-0.015655518,0.06538391,0.43312073,19.462585,14.752197,-50.68512,
4708583535712,-0.36462402,0.4685974,8.623688,-0.015167236,0.027923584,0.4148407,19.462585,14.752197,-50.68512,
4708588571112,-0.3429718,0.49572754,8.50647,-0.009277344,-0.022994995,0.39727783,19.462585,14.752197,-50.68512,
4708593606512,-0.28399658,0.49186707,8.412262,-7.9345703E-4,-0.08105469,0.38059998,19.462585,14.752197,-50.68512,
4708598641913,-0.13778687,0.5548401,8.343277,0.007507324,-0.13464355,0.3634491,19.664001,12.968445,-50.465393,
4708603677313,-0.040603638,0.58903503,8.248245,0.01399231,-0.18383789,0.345047,19.664001,12.968445,-50.465393,
4708608712713,-0.040740967,0.6664276,8.158661,0.013214111,-0.21755981,0.32640076,19.664001,12.968445,-50.465393,
4708613748114,-0.025772095,0.65057373,8.032852,0.005508423,-0.23512268,0.3023529,19.664001,12.968445,-50.465393,
4708618783514,-0.047409058,0.58447266,8.024963,-0.013687134,-0.23905945,0.27624512,17.977905,12.687683,-50.74005,
4708623818915,-0.11174011,0.5140991,8.0504,-0.038238525,-0.2354126,0.2472229,17.977905,12.687683,-50.74005,
4708628854315,-0.2091217,0.46148682,8.211929,-0.06829834,-0.22390747,0.22138977,17.977905,12.687683,-50.74005,
4708633889715,-0.3231659,0.39871216,8.397232,-0.10391235,-0.20097351,0.193573,17.977905,12.687683,-50.74005,
4708638925116,-0.41584778,0.3356781,8.576782,-0.13067627,-0.17269897,0.17242432,18.016052,12.64801,-50.473022,
4708643960516,-0.4713745,0.29544067,8.447388,-0.14830017,-0.14015198,0.16023254,18.016052,12.64801,-50.473022,
4708648995917,-0.6120148,0.19926453,8.33931,-0.15362549,-0.102996826,0.15260315,18.016052,12.64801,-50.473022,
4708654031317,-0.689209,0.12434387,8.1940155,-0.15362549,-0.102996826,0.15260315,18.016052,12.64801,-50.473022,
4708659066717,-0.8060608,0.054092407,7.960434,-0.1388855,-0.034606934,0.15052795,18.525696,12.3046875,-49.772644,
4708664102118,-0.8647461,0.02470398,7.8542786,-0.12458801,-0.009246826,0.16038513,18.525696,12.3046875,-49.772644,
4708669137518,-0.9690094,0.03741455,7.718445,-0.10652161,0.008560181,0.17747498,18.525696,12.3046875,-49.772644,
4708674172919,-0.9111786,0.07141113,7.5951233,-0.08314514,0.01838684,0.20097351,19.694519,11.657715,-50.405884,
4708679208319,-0.71066284,0.22058105,7.4250336,-0.055023193,0.019958496,0.22943115,19.694519,11.657715,-50.405884,
4708684243719,-0.44000244,0.4205475,7.155243,-0.0206604,0.017120361,0.2579651,19.694519,11.657715,-50.405884,
4708689279120,-0.070373535,0.6062927,6.8643036,0.017364502,0.009902954,0.2806549,19.694519,11.657715,-50.405884,
4708694314520,0.08946228,0.74191284,6.5881805,0.067611694,-0.0077209473,0.29542542,19.094849,12.055969,-50.209045,
4708699349921,0.11830139,0.80648804,6.2595215,0.11480713,-0.03074646,0.29599,19.094849,12.055969,-50.209045,
4708704385321,0.07395935,0.88475037,5.8973083,0.15914917,-0.05973816,0.28640747,19.094849,12.055969,-50.209045,
4708709420721,0.09233093,0.9122467,5.5627747,0.20028687,-0.09451294,0.2743988,19.094849,12.055969,-50.209045,
4708714456122,0.11381531,1.0057373,5.255905,0.23446655,-0.13046265,0.2629547,17.791748,13.082886,-49.682617,
4708719491522,0.06248474,1.1405182,4.937454,0.26010132,-0.16325378,0.25326538,17.791748,13.082886,-49.682617,
4708724526922,0.11566162,1.2104034,4.7680817,0.27496338,-0.18955994,0.24557495,17.791748,13.082886,-49.682617,
4708729562323,0.19190979,1.2353058,4.5554047,0.27392578,-0.20315552,0.2394104,17.791748,13.082886,-49.682617,
4708734597723,0.3467102,1.321167,4.4465485,0.2585144,-0.20521545,0.23396301,18.148804,13.201904,-49.568176,
4708739633124,0.41911316,1.4322357,4.476776,0.23086548,-0.19544983,0.22807312,18.148804,13.201904,-49.568176,
4708744668524,0.38459778,1.4628296,4.631546,0.19184875,-0.17530823,0.21746826,18.148804,13.201904,-49.568176,
4708749703924,0.30996704,1.3704224,4.990799,0.14241028,-0.14628601,0.19941711,18.148804,13.201904,-49.568176,
4708754739325,0.21917725,1.3338776,5.340149,0.09211731,-0.11412048,0.18041992,18.392944,12.590027,-49.806213,
4708759774725,0.16108704,1.3510742,5.6512146,0.0579834,-0.0899353,0.16719055,18.392944,12.590027,-49.806213,
4708764810126,0.107803345,1.3325806,5.930374,0.03942871,-0.073532104,0.16119385,18.392944,12.590027,-49.806213,
4708769845526,0.0056610107,1.2906342,6.1141815,0.033676147,-0.063308716,0.15901184,18.392944,12.590027,-49.806213,
4708774880926,-0.04159546,1.2634735,6.2235413,0.038146973,-0.058746338,0.15802002,18.580627,11.485291,-50.361633,
4708779916327,0.024307251,1.2778625,6.3278046,0.051498413,-0.061203003,0.15919495,18.580627,11.485291,-50.361633,
4708784951727,0.12832642,1.3102722,6.4224396,0.07096863,-0.0717926,0.16271973,18.580627,11.485291,-50.361633,
4708789987128,0.2637329,1.387146,6.5224915,0.08706665,-0.08622742,0.16311646,18.580627,11.485291,-50.361633,
4708795022528,0.4172058,1.4255066,6.7910767,0.091934204,-0.09738159,0.15887451,18.148804,11.485291,-50.572205,
4708800057928,0.44544983,1.4072723,7.136139,0.08270264,-0.101867676,0.14701843,18.148804,11.485291,-50.572205,
4708805093329,0.35679626,1.3855286,7.5237427,0.06373596,-0.09849548,0.12701416,18.148804,11.485291,-50.572205,
4708810128729,0.28337097,1.37854,7.852188,0.040985107,-0.08520508,0.10095215,18.148804,11.485291,-50.572205,
4708815164129,0.22262573,1.3492737,8.08963,0.021026611,-0.06614685,0.076538086,17.570496,11.485291,-50.854492,
4708820199530,0.22573853,1.2880554,8.205093,0.009674072,-0.0488739,0.053588867,17.570496,11.485291,-50.854492,
4708825234930,0.12112427,1.2807312,8.31987,0.006713867,-0.0415802,0.03225708,17.570496,11.485291,-50.854492,
4708830270331,0.08035278,1.2646179,8.552261,0.008178711,-0.0448761,0.01411438,17.570496,11.485291,-50.854492,
4708835305731,0.13725281,1.3335419,8.905228,0.013473511,-0.05973816,-0.0031433105,17.596436,10.662842,-51.460266,
4708840341131,0.113357544,1.279892,9.202789,0.023834229,-0.08528137,-0.021636963,17.596436,10.662842,-51.460266,
4708845376532,-0.0018920898,1.1970215,9.262985,0.043121338,-0.113586426,-0.04295349,17.596436,10.662842,-51.460266,
4708850411932,-0.22459412,1.1359711,9.379501,0.06201172,-0.13166809,-0.06576538,17.596436,10.662842,-51.460266,
4708855447333,-0.4170227,1.0312042,9.477875,0.076675415,-0.1383667,-0.085739136,18.66455,9.596252,-51.745605,
4708860482733,-0.5144043,0.9918213,9.585266,0.08100891,-0.13395691,-0.09851074,18.66455,9.596252,-51.745605,
4708865518133,-0.5305023,0.9576111,9.702576,0.0756073,-0.12133789,-0.105026245,18.66455,9.596252,-51.745605,
4708870553534,-0.55651855,1.001236,9.826065,0.06555176,-0.10520935,-0.10786438,18.66455,9.596252,-51.745605,
4708875588934,-0.643631,1.0011444,9.8233185,0.056777954,-0.092056274,-0.107940674,18.24646,10.513306,-51.174927,
4708880624335,-0.7300873,0.9481201,10.061798,0.04257202,-0.083236694,-0.11224365,18.24646,10.513306,-51.174927,
4708885659735,-0.7149811,0.914978,10.291153,0.023849487,-0.073898315,-0.115493774,18.24646,10.513306,-51.174927,
4708890695135,-0.68299866,0.94467163,10.670212,0.023849487,-0.073898315,-0.115493774,18.24646,10.513306,-51.174927,
4708895730536,-0.4446106,0.98735046,11.151382,-0.013809204,-0.0897522,-0.12075806,17.120361,11.656189,-50.572205,
4708900765936,-0.30551147,0.9982605,11.4995575,-0.029769897,-0.103271484,-0.12484741,17.120361,11.656189,-50.572205,
4708905801337,-0.36079407,0.9171295,11.871353,-0.04109192,-0.109298706,-0.1355896,17.120361,11.656189,-50.572205,
4708910836737,-0.53948975,0.91856384,12.1539,-0.055160522,-0.10107422,-0.15338135,16.43219,11.828613,-50.572205,
4708915872137,-0.5075226,0.9553375,12.232971,-0.06770325,-0.0818634,-0.17282104,16.43219,11.828613,-50.572205,
4708920907538,-0.44444275,0.87719727,12.24559,-0.076690674,-0.060287476,-0.1906128,16.43219,11.828613,-50.572205,
4708925942938,-0.5543823,0.7460327,12.344116,-0.0818634,-0.047027588,-0.20585632,16.43219,11.828613,-50.572205,
4708930978338,-0.6721039,0.59664917,12.579025,-0.088638306,-0.049957275,-0.22743225,16.903687,11.355591,-50.84839,
4708936013739,-0.7895355,0.52589417,12.798904,-0.09605408,-0.06463623,-0.24409485,16.903687,11.355591,-50.84839,
4708941049139,-0.90270996,0.43553162,13.167313,-0.09313965,-0.08695984,-0.25387573,16.903687,11.355591,-50.84839,
4708946084540,-1.022049,0.31214905,13.542618,-0.07936096,-0.11868286,-0.2588501,16.903687,11.355591,-50.84839,
4708951119940,-1.1443176,0.20550537,13.958374,-0.05569458,-0.15299988,-0.25772095,16.516113,11.16333,-51.64032,
4708956155340,-1.3607941,0.058883667,14.329422,-0.021087646,-0.1807251,-0.24990845,16.516113,11.16333,-51.64032,
4708961190741,-1.5422668,-0.044891357,14.455948,0.028213501,-0.19877625,-0.23426819,16.516113,11.16333,-51.64032,
4708966226141,-1.642334,-0.08843994,14.43956,0.083465576,-0.19436646,-0.20982361,16.516113,11.16333,-51.64032,
4708971261542,-1.6237488,-0.04574585,14.1354065,0.13963318,-0.17047119,-0.17453003,15.916443,11.314392,-52.0813,
4708976296942,-1.4288025,0.1179657,13.61557,0.19203186,-0.13270569,-0.13031006,15.916443,11.314392,-52.0813,
4708981332342,-1.0481567,0.32505798,12.999741,0.23519897,-0.087753296,-0.084365845,15.916443,11.314392,-52.0813,
4708986367743,-0.6451111,0.53234863,12.462494,0.25982666,-0.039489746,-0.04096985,15.916443,11.314392,-52.0813,
4708991403143,-0.3242798,0.6983948,12.058884,0.260849,0.0042266846,-0.008926392,16.76178,10.890198,-51.667786,
4708996438544,-0.040924072,0.8154144,11.671158,0.241745,0.03327942,0.004257202,16.76178,10.890198,-51.667786,
4709001473944,0.13291931,0.91160583,11.380478,0.2116394,0.049423218,6.866455E-4,16.76178,10.890198,-51.667786,
4709006509344,0.25756836,1.0305176,11.114365,0.17889404,0.051483154,-0.01612854,16.76178,10.890198,-51.667786,
4709011544745,0.41215515,1.1426392,10.921539,0.14457703,0.03652954,-0.040527344,17.181396,11.808777,-51.09558,
4709016580145,0.5688019,1.2045593,10.923477,0.10368347,0.0027160645,-0.07272339,17.181396,11.808777,-51.09558,
4709021615546,0.6177063,1.1352081,11.153488,0.057647705,-0.04484558,-0.11218262,17.181396,11.808777,-51.09558,
4709026650946,0.6143036,1.0245972,11.479935,0.012542725,-0.09597778,-0.15390015,17.181396,11.808777,-51.09558,
4709031686346,0.58177185,0.9564972,11.759811,-0.028533936,-0.14677429,-0.19844055,17.118835,12.515259,-50.907898,
4709036721747,0.5510864,0.86505127,11.857697,-0.06347656,-0.1904602,-0.24214172,17.118835,12.515259,-50.907898,
4709041757147,0.5345001,0.77867126,12.041992,-0.095321655,-0.21836853,-0.27842712,17.118835,12.515259,-50.907898,
4709046792547,0.59143066,0.670105,12.271561,-0.13157654,-0.23626709,-0.31166077,17.118835,12.515259,-50.907898,
4709051827948,0.5990753,0.58680725,12.478577,-0.1643219,-0.24594116,-0.3380432,17.469788,11.695862,-50.564575,
4709056863348,0.65919495,0.48631287,12.595993,-0.19081116,-0.25112915,-0.36209106,17.469788,11.695862,-50.564575,
4709061898749,0.6606903,0.3882904,12.756363,-0.21334839,-0.24873352,-0.3843689,17.469788,11.695862,-50.564575,
4709066934149,0.55003357,0.26757813,13.006668,-0.23695374,-0.23828125,-0.40449524,17.469788,11.695862,-50.564575,
4709071969549,0.44909668,0.10572815,13.271576,-0.25624084,-0.2244873,-0.4205017,16.567993,11.431885,-50.750732,
4709077004950,0.33570862,-0.025726318,13.483078,-0.26863098,-0.20947266,-0.4330597,16.567993,11.431885,-50.750732,
4709082040350,0.26611328,-0.115371704,13.548096,-0.26641846,-0.19134521,-0.43571472,16.567993,11.431885,-50.750732,
4709087075751,0.25524902,-0.13943481,13.522217,-0.25346375,-0.16137695,-0.4310608,16.567993,11.431885,-50.750732,
4709092111151,0.30400085,-0.20332336,13.407852,-0.23432922,-0.11982727,-0.41479492,16.088867,11.485291,-50.907898,
4709097146551,0.38186646,-0.20317078,13.114731,-0.20872498,-0.07336426,-0.39437866,16.088867,11.485291,-50.907898,
4709102181952,0.5196991,-0.17449951,12.792679,-0.18130493,-0.020767212,-0.37397766,16.088867,11.485291,-50.907898,
4709107217352,0.6053467,-0.13781738,12.498871,-0.15301514,0.045074463,-0.34962463,16.984558,11.613464,-51.283264,
4709112252753,0.7028961,-0.04121399,12.189514,-0.13224792,0.111450195,-0.32893372,16.984558,11.613464,-51.283264,
4709117288153,0.8855591,0.031021118,11.737244,-0.11135864,0.17808533,-0.3136902,16.984558,11.613464,-51.283264,
4709122323553,1.2186584,0.23580933,11.252518,-0.08720398,0.23983765,-0.30078125,16.984558,11.613464,-51.283264,
4709127358954,1.4412384,0.4376526,10.682388,-0.05897522,0.29571533,-0.2919464,15.866089,12.562561,-50.52643,
4709132394354,1.4569092,0.5419922,10.036865,-0.03366089,0.3380432,-0.2962494,15.866089,12.562561,-50.52643,
4709137429754,1.1931,0.42938232,9.391632,-0.009933472,0.36676025,-0.31469727,15.866089,12.562561,-50.52643,
4709142465155,0.95140076,0.27789307,9.054886,0.0034179688,0.3782196,-0.33807373,15.866089,12.562561,-50.52643,
4709147500555,0.6456299,0.14050293,9.015305,0.0026245117,0.37709045,-0.35621643,15.402222,12.858582,-50.238037,
4709152535956,0.3706665,0.08157349,8.911316,-0.008056641,0.36384583,-0.3638916,15.402222,12.858582,-50.238037,
4709157571356,0.19276428,0.04711914,8.810135,-0.016143799,0.35006714,-0.35957336,15.402222,12.858582,-50.238037,
4709162606756,0.094314575,0.027404785,8.549423,-0.015640259,0.3360138,-0.34396362,15.402222,12.858582,-50.238037,
4709167642157,0.07858276,0.07470703,8.352661,-0.0045166016,0.3092804,-0.3139038,15.261841,12.162781,-50.100708,
4709172677557,0.15777588,0.083099365,8.267746,0.010681152,0.27545166,-0.28173828,15.261841,12.162781,-50.100708,
4709177712958,0.26275635,0.16726685,8.217377,0.021469116,0.23799133,-0.24723816,15.261841,12.162781,-50.100708,
4709182748358,0.3258667,0.21234131,8.202209,0.028762817,0.20050049,-0.2132721,15.261841,12.162781,-50.100708,
4709187783758,0.42196655,0.30960083,8.120163,0.03416443,0.1673584,-0.18585205,16.908264,11.720276,-51.435852,
4709192819159,0.6493988,0.4670868,8.015366,0.036697388,0.13955688,-0.16287231,16.908264,11.720276,-51.435852,
4709197854559,0.7874603,0.60461426,7.936264,0.037857056,0.11260986,-0.14329529,16.908264,11.720276,-51.435852,
4709202889960,0.82099915,0.6495819,7.944809,0.03555298,0.09335327,-0.13378906,16.908264,11.720276,-51.435852,
4709207925360,0.8069763,0.6756134,8.0503845,0.025222778,0.08074951,-0.1338501,17.289734,11.657715,-51.745605,
4709212960760,0.75798035,0.68348694,8.126389,0.009628296,0.073913574,-0.13853455,17.289734,11.657715,-51.745605,
4709217996161,0.71403503,0.6791229,8.175766,-0.0054626465,0.072906494,-0.14440918,17.289734,11.657715,-51.745605,
4709223031561,0.6782379,0.7033386,8.195663,-0.0146484375,0.07899475,-0.14840698,17.289734,11.657715,-51.745605,
4709228066962,0.65615845,0.73194885,8.093506,-0.01701355,0.090286255,-0.15013123,17.289734,13.160706,-52.33307,
4709233102362,0.6569061,0.75457764,7.899948,-0.01701355,0.10342407,-0.14953613,17.289734,13.160706,-52.33307,
4709238137762,0.6438751,0.75083923,7.654297,-0.01701355,0.11819458,-0.14500427,17.289734,13.160706,-52.33307,
4709243173163,0.646225,0.75201416,7.49144,-0.019454956,0.13407898,-0.1390686,17.289734,13.160706,-52.33307,
4709248208563,0.6783905,0.7915497,7.546463,-0.02659607,0.14802551,-0.13323975,16.835022,12.615967,-51.086426,
4709253243963,0.73306274,0.84313965,7.7212677,-0.03465271,0.15814209,-0.12786865,16.835022,12.615967,-51.086426,
4709258279364,0.7202606,0.8879852,7.7170105,-0.036636353,0.16261292,-0.12133789,16.835022,12.615967,-51.086426,
4709263314764,0.6813507,0.8953552,7.6246643,-0.02709961,0.16549683,-0.115097046,16.835022,12.615967,-51.086426,
4709268350165,0.66474915,0.9273834,7.478546,-0.009307861,0.17166138,-0.111816406,16.775513,12.515259,-50.907898,
4709273385565,0.7627411,0.9902954,7.3193207,0.009613037,0.17631531,-0.105895996,16.775513,12.515259,-50.907898,
4709278420965,0.94989014,1.1379242,7.1351624,0.028671265,0.17727661,-0.09863281,16.775513,12.515259,-50.907898,
4709283456366,1.0405579,1.237915,7.0398254,0.04925537,0.17417908,-0.09463501,16.775513,12.515259,-50.907898,
4709288491766,1.0541687,1.2822723,7.001465,0.06843567,0.16809082,-0.09812927,16.612244,13.322449,-50.434875,
4709293527167,1.0180969,1.3167725,6.9275513,0.08534241,0.15731812,-0.10949707,16.612244,13.322449,-50.434875,
4709298562567,0.94802856,1.2894592,6.846237,0.10253906,0.14187622,-0.12516785,16.612244,13.322449,-50.434875,
4709303597967,0.85824585,1.248703,6.729233,0.12181091,0.12548828,-0.14245605,16.612244,13.322449,-50.434875,
4709308633368,0.77622986,1.262497,6.6485596,0.13435364,0.113479614,-0.15463257,18.388367,13.21106,-51.82953,
4709313668768,0.6707611,1.2787933,6.56781,0.1441803,0.106414795,-0.1663208,18.388367,13.21106,-51.82953,
4709318704169,0.55448914,1.2540436,6.3514404,0.14915466,0.106658936,-0.17539978,18.388367,13.21106,-51.82953,
4709323739569,0.5430298,1.3366089,6.183548,0.15058899,0.110702515,-0.18119812,18.388367,13.21106,-51.82953,
4709328774969,0.5566406,1.3284302,6.088913,0.1476593,0.11706543,-0.18263245,18.492126,13.201904,-51.913452,
4709333810370,0.40272522,1.2691803,6.072571,0.13409424,0.12876892,-0.18475342,18.492126,13.201904,-51.913452,
4709338845770,0.18011475,1.1751709,6.298065,0.11405945,0.13993835,-0.18873596,18.492126,13.201904,-51.913452,
4709343881171,0.023468018,1.1082916,6.395859,0.0940094,0.14956665,-0.19012451,18.492126,13.201904,-51.913452,
4709348916571,-0.09980774,0.9898987,6.530136,0.08546448,0.16156006,-0.18235779,18.492126,13.201904,-51.913452,
4709353951971,-0.32295227,0.99298096,6.7397614,0.08366394,0.17416382,-0.16793823,18.492126,13.201904,-51.913452,
4709358987372,-0.50842285,1.0343018,6.9385376,0.09074402,0.17597961,-0.14685059,18.492126,13.201904,-51.913452,
4709364022772,-0.49617004,1.0269318,7.03714,0.10624695,0.1717987,-0.1211853,17.811584,12.509155,-50.23651,
4709369058172,-0.39289856,1.0702362,6.7704163,0.1352539,0.15815735,-0.090408325,17.811584,12.509155,-50.23651,
4709374093573,-0.2325592,1.1695862,6.610367,0.18075562,0.13140869,-0.05003357,17.811584,12.509155,-50.23651,
4709379128973,0.037078857,1.3520508,6.596222,0.22047424,0.09883118,-0.017440796,17.811584,12.509155,-50.23651,
4709384164374,0.2886505,1.5384064,6.644272,0.24899292,0.060562134,0.0066986084,19.007874,11.657715,-50.07019,
4709389199774,0.47177124,1.6899719,6.7427673,0.26663208,0.023956299,0.019165039,19.007874,11.657715,-50.07019,
4709394235174,0.5834961,1.7852631,6.8095856,0.27929688,-0.005004883,0.022583008,19.007874,11.657715,-50.07019,
4709399270575,0.61543274,1.8351288,6.8656616,0.28640747,-0.028060913,0.016296387,19.007874,11.657715,-50.07019,
4709404305975,0.57722473,1.8376465,6.9252167,0.2905426,-0.0466156,-0.0018615723,18.965149,11.682129,-50.094604,
4709409341376,0.4295349,1.795517,6.997864,0.28190613,-0.05116272,-0.021865845,18.965149,11.682129,-50.094604,
4709414376776,0.2451477,1.7416077,7.114929,0.25761414,-0.03451538,-0.04197693,18.965149,11.682129,-50.094604,
4709419412176,0.12902832,1.6655884,7.407135,0.21887207,-0.0019989014,-0.058044434,18.965149,11.682129,-50.094604,
4709424447577,0.023590088,1.5951691,7.6483765,0.17126465,0.042404175,-0.06625366,18.148804,12.171936,-50.642395,
4709429482977,-0.19802856,1.5285797,7.9588776,0.12277222,0.088394165,-0.06806946,18.148804,12.171936,-50.642395,
4709434518378,-0.38656616,1.4372559,8.229187,0.07836914,0.13417053,-0.06399536,18.148804,12.171936,-50.642395,
4709439553778,-0.5106354,1.3854828,8.604248,0.043167114,0.17350769,-0.051239014,18.148804,12.171936,-50.642395,
4709444589178,-0.5858002,1.3769531,8.966873,0.01727295,0.20205688,-0.029403687,18.148804,12.171936,-51.57776,
4709449624579,-0.64282227,1.3768616,9.18869,0.0050201416,0.21806335,-0.0013427734,18.148804,12.171936,-51.57776,
4709454659979,-0.5978241,1.4103394,9.38475,0.0084991455,0.22213745,0.029632568,18.148804,12.171936,-51.57776,
4709459695379,-0.386261,1.484314,9.604462,0.024414063,0.21768188,0.064834595,18.148804,12.171936,-51.57776,
4709464730780,-0.16191101,1.635437,9.758972,0.049331665,0.2063446,0.103378296,18.24646,12.1521,-51.44348,
4709469766180,-0.030273438,1.8006592,9.724701,0.08000183,0.19438171,0.13398743,18.24646,12.1521,-51.44348,
4709474801581,-0.03416443,1.8881989,9.565201,0.11505127,0.17996216,0.153656,18.24646,12.1521,-51.44348,
4709479836981,-0.19387817,1.8136139,9.52803,0.14729309,0.15733337,0.16517639,18.24646,12.1521,-51.44348,
4709484872381,-0.4063568,1.7247314,9.474899,0.17314148,0.123306274,0.17233276,19.007874,11.953735,-50.405884,
4709489907782,-0.5200653,1.6772156,9.426697,0.19642639,0.07914734,0.18206787,19.007874,11.953735,-50.405884,
4709494943182,-0.45529175,1.7052155,9.377197,0.21621704,0.028320313,0.2041626,19.007874,11.953735,-50.405884,
4709499978583,-0.22691345,1.7476807,9.402832,0.2272644,-0.023132324,0.23657227,19.007874,11.953735,-50.405884,
4709505013983,0.04244995,1.8978424,9.498581,0.23120117,-0.07745361,0.2700348,19.007874,11.657715,-50.405884,
4709510049383,0.35284424,2.0890656,9.571594,0.22955322,-0.1353302,0.29814148,19.007874,11.657715,-50.405884,
4709515084784,0.700943,2.256958,9.781708,0.21914673,-0.18896484,0.31784058,19.007874,11.657715,-50.405884,
4709520120184,1.057663,2.344635,10.126556,0.1958313,-0.24324036,0.3275299,19.007874,11.657715,-50.405884,
4709525155585,1.3356934,2.4407349,10.472992,0.16572571,-0.29400635,0.31973267,18.884277,11.657715,-50.283813,
4709530190985,1.6038055,2.4707947,10.901108,0.13093567,-0.33187866,0.29832458,18.884277,11.657715,-50.283813,
4709535226385,1.8490448,2.5372772,11.414108,0.09220886,-0.35627747,0.2654419,18.884277,11.657715,-50.283813,
4709540261786,1.9605408,2.5374756,11.996582,0.048477173,-0.36180115,0.22337341,18.884277,11.657715,-50.283813,
4709545297186,1.8651276,2.3713684,12.756088,2.2888184E-4,-0.34051514,0.17269897,18.591309,11.58905,-49.734497,
4709550332587,1.7279968,2.292572,13.671555,-0.06123352,-0.2818451,0.10966492,18.591309,11.58905,-49.734497,
4709555367987,1.5167236,2.1585083,14.595764,-0.119003296,-0.19165039,0.049819946,18.591309,11.58905,-49.734497,
4709560403387,1.1492615,1.9282837,15.110428,-0.15867615,-0.07722473,-0.003982544,18.591309,11.58905,-49.734497,
4709565438788,0.62864685,1.546814,14.916122,-0.1714325,0.058242798,-0.049423218,19.694519,11.314392,-49.734497,
4709570474188,0.12263489,1.2893219,14.439987,-0.14779663,0.20137024,-0.07962036,19.694519,11.314392,-49.734497,
4709575509588,-0.23143005,1.187149,13.873398,-0.108551025,0.31832886,-0.09010315,19.694519,11.314392,-49.734497,
4709580544989,-0.52667236,1.1691589,13.437775,-0.061141968,0.4163971,-0.07974243,19.567871,11.019897,-50.102234,
4709585580389,-0.7051544,1.1328583,13.015549,-0.020889282,0.46653748,-0.056488037,19.567871,11.019897,-50.102234,
4709590615790,-0.7524414,1.1431122,12.432556,0.013336182,0.48608398,-0.026901245,19.567871,11.019897,-50.102234,
4709595651190,-0.74935913,1.2411804,11.834183,0.03703308,0.48680115,0.0061035156,19.567871,11.019897,-50.102234,
4709600686590,-0.67845154,1.3719177,11.571655,0.042510986,0.47021484,0.0398407,18.998718,10.290527,-51.24359,
4709605721991,-0.6493225,1.5193939,11.591782,0.028427124,0.44099426,0.06365967,18.998718,10.290527,-51.24359,
4709610757391,-0.7148285,1.5262756,11.539459,-0.0032958984,0.39445496,0.076416016,18.998718,10.290527,-51.24359,
4709615792792,-0.7718506,1.5475464,11.535507,-0.033432007,0.34527588,0.07951355,18.998718,10.290527,-51.24359,
4709620828192,-0.75746155,1.6302338,11.510986,-0.062057495,0.29415894,0.07623291,18.492126,10.798645,-51.24359,
4709625863592,-0.8267517,1.6534424,11.489471,-0.09056091,0.23901367,0.07206726,18.492126,10.798645,-51.24359,
4709630898993,-0.8951721,1.5967407,11.413635,-0.11508179,0.1817627,0.06384277,18.492126,10.798645,-51.24359,
4709635934393,-0.84658813,1.5449219,11.518295,-0.13885498,0.12483215,0.053619385,18.492126,10.798645,-51.24359,
4709640969794,-0.84983826,1.5177612,11.753235,-0.16921997,0.05947876,0.04321289,19.337463,10.6918335,-51.449585,
4709646005194,-0.85313416,1.4308167,11.949219,-0.19961548,0.0027160645,0.033721924,19.337463,10.6918335,-51.449585,
4709651040594,-0.80770874,1.3385773,12.22702,-0.23101807,-0.044036865,0.025665283,19.337463,10.6918335,-51.449585,
4709656075995,-0.7689514,1.2427673,12.550537,-0.25753784,-0.08328247,0.019485474,19.337463,10.6918335,-51.449585,
4709661111395,-0.8244171,1.0712738,12.946793,-0.2791748,-0.111572266,0.014160156,20.46051,11.343384,-51.80359,
4709666146796,-0.8985596,0.90348816,13.410019,-0.29725647,-0.12286377,0.00920105,20.46051,11.343384,-51.80359,
4709671182196,-0.9659271,0.77838135,13.791901,-0.30952454,-0.115478516,0.007232666,20.46051,11.343384,-51.80359,
4709676217596,-1.0763245,0.679657,14.016403,-0.31167603,-0.092819214,0.011230469,20.46051,11.343384,-51.80359,
4709681252997,-1.1987,0.5978699,14.020081,-0.2975464,-0.05961609,0.02067566,18.83545,13.201904,-51.57776,
4709686288397,-1.2542877,0.54174805,13.8515625,-0.26651,-0.017944336,0.036743164,18.83545,13.201904,-51.57776,
4709691323797,-1.2429504,0.4559784,13.622803,-0.22569275,0.02432251,0.059143066,18.83545,13.201904,-51.57776,
4709696359198,-1.207489,0.44288635,13.275223,-0.17732239,0.06274414,0.088409424,18.83545,13.201904,-51.57776,
4709701394598,-1.1596985,0.49575806,12.760422,-0.12120056,0.09326172,0.12182617,18.899536,12.625122,-51.13983,
4709706429999,-1.0520172,0.5844879,12.190872,-0.061553955,0.113586426,0.15577698,18.899536,12.625122,-51.13983,
4709711465399,-0.89541626,0.69929504,11.698822,-0.0029449463,0.12251282,0.1882019,18.899536,12.625122,-51.13983,
4709716500799,-0.73349,0.8179474,11.208511,0.050613403,0.11807251,0.21554565,18.899536,12.625122,-51.13983,
4709721536200,-0.5763397,0.8973236,10.681107,0.09350586,0.10681152,0.23461914,19.73877,11.856079,-50.21057,
4709726571600,-0.37277222,0.997818,10.187012,0.12986755,0.09286499,0.24726868,19.73877,11.856079,-50.21057,
4709731607001,-0.22236633,1.0888062,9.77533,0.1556549,0.076156616,0.25094604,19.73877,11.856079,-50.21057,
4709736642401,-0.21485901,1.1399384,9.33931,0.17120361,0.058013916,0.24290466,19.73877,11.856079,-50.21057,
4709741677801,-0.27452087,1.1084137,8.901779,0.17675781,0.04019165,0.22634888,20.895386,12.171936,-49.902344,
4709746713202,-0.38531494,0.9995575,8.593674,0.16648865,0.029769897,0.20237732,20.895386,12.171936,-49.902344,
4709751748602,-0.6155853,0.835495,8.464111,0.1394043,0.024765015,0.17462158,20.895386,12.171936,-49.902344,
4709756784003,-0.82774353,0.65844727,8.540176,0.09638977,0.01864624,0.1446228,20.895386,12.171936,-49.902344,
4709761819403,-0.9846039,0.46427917,8.813797,0.04899597,0.009414673,0.1207428,20.443726,11.419678,-50.195313,
4709766854803,-1.1232758,0.37023926,9.070251,0.009994507,-0.0030059814,0.10592651,20.443726,11.419678,-50.195313,
4709771890204,-1.2040253,0.31211853,9.261871,-0.011947632,-0.022399902,0.100860596,20.443726,11.419678,-50.195313,
4709776925604,-1.3575745,0.16836548,9.366867,-0.014877319,-0.04949951,0.10310364,20.443726,11.419678,-50.195313,
4709781961004,-1.4431,-0.051376343,9.429443,-9.3078613E-4,-0.07872009,0.11053467,19.787598,10.377502,-51.25122,
4709786996405,-1.4949036,-0.17144775,9.376419,0.02508545,-0.11206055,0.123535156,19.787598,10.377502,-51.25122,
4709792031805,-1.4904938,-0.20594788,9.175171,0.055984497,-0.13383484,0.14627075,19.787598,10.377502,-51.25122,
4709797067206,-1.4120178,-0.11804199,8.872345,0.085006714,-0.14878845,0.17259216,19.787598,10.377502,-51.25122,
4709802102606,-1.210434,0.037261963,8.6345215,0.10510254,-0.15472412,0.19976807,19.694519,10.284424,-52.0813,
4709807138006,-0.9369812,0.02897644,8.463074,0.11419678,-0.1591034,0.22381592,19.694519,10.284424,-52.0813,
4709812173407,-0.8463135,0.121414185,8.111786,0.116363525,-0.16618347,0.23825073,19.694519,10.284424,-52.0813,
4709817208807,-0.7108002,0.13945007,7.838196,0.11213684,-0.1821289,0.24453735,20.72754,10.455322,-51.911926,
4709822244208,-0.5950165,0.22467041,7.613968,0.1085968,-0.20323181,0.24433899,20.72754,10.455322,-51.911926,
4709827279608,-0.45907593,0.3076172,7.5197144,0.0993042,-0.23051453,0.23954773,20.72754,10.455322,-51.911926,
4709832315008,-0.3925171,0.30871582,7.547928,0.08119202,-0.25837708,0.22810364,20.72754,10.455322,-51.911926,
4709837350409,-0.43719482,0.24134827,7.6996765,0.05696106,-0.27949524,0.21134949,21.047974,11.155701,-51.228333,
4709842385809,-0.5256958,0.15507507,7.868088,0.03147888,-0.29418945,0.19192505,21.047974,11.155701,-51.228333,
4709847421210,-0.51161194,0.1269989,8.076447,0.0043945313,-0.29901123,0.17082214,21.047974,11.155701,-51.228333,
4709852456610,-0.5412445,0.07800293,8.198135,-0.016189575,-0.287735,0.15737915,21.047974,11.155701,-51.228333,
4709857492010,-0.6838379,-0.011413574,8.149826,-0.035354614,-0.25628662,0.14822388,20.381165,11.657715,-50.74005,
4709862527411,-0.75860596,-0.025543213,8.15564,-0.05255127,-0.20883179,0.14260864,20.381165,11.657715,-50.74005,
4709867562811,-0.73246765,-0.05029297,8.099335,-0.06843567,-0.15016174,0.1416626,20.381165,11.657715,-50.74005,
4709872598212,-0.72435,-0.028579712,7.9930115,-0.08175659,-0.08796692,0.14564514,20.381165,11.657715,-50.74005,
4709877633612,-0.7885742,-0.0072784424,7.754883,-0.08857727,-0.022415161,0.15464783,20.089722,11.170959,-49.887085,
4709882669012,-0.787323,0.056991577,7.391464,-0.08598328,0.03340149,0.16651917,20.089722,11.170959,-49.887085,
4709887704413,-0.68600464,0.17570496,6.9537354,-0.07759094,0.08125305,0.1821289,20.089722,11.170959,-49.887085,
4709892739813,-0.53993225,0.2994995,6.652313,-0.06921387,0.11341858,0.20028687,20.089722,11.170959,-49.887085,
4709897775213,-0.44319153,0.38078308,6.431061,-0.06037903,0.12387085,0.21696472,19.667053,11.193848,-50.00305,
4709902810614,-0.26683044,0.54273987,6.3148956,-0.05291748,0.11911011,0.23147583,19.667053,11.193848,-50.00305,
4709907846014,0.026031494,0.793869,6.1996765,-0.04623413,0.10202026,0.24317932,19.667053,11.193848,-50.00305,
4709912881415,0.32530212,1.0759125,6.046692,-0.041397095,0.08239746,0.25021362,19.667053,11.193848,-50.00305,
4709917916815,0.5061493,1.2770844,5.9838867,-0.038864136,0.06274414,0.24763489,19.522095,11.485291,-50.572205,
4709922952215,0.55178833,1.3474426,6.0576324,-0.045074463,0.044631958,0.23117065,19.522095,11.485291,-50.572205,
4709927987616,0.4865265,1.3524628,6.1720734,-0.058654785,0.030807495,0.20349121,19.522095,11.485291,-50.572205,
4709933023016,0.32022095,1.3427124,6.273529,-0.07650757,0.0209198,0.16773987,19.522095,11.485291,-50.572205,
4709938058417,0.13552856,1.3164215,6.5062256,-0.09631348,0.01763916,0.13101196,19.630432,11.160278,-51.31073,
4709943093817,6.2561035E-4,1.279129,6.7400208,-0.112457275,0.018127441,0.102493286,19.630432,11.160278,-51.31073,
4709948129217,-0.06442261,1.2188263,6.9404907,-0.12162781,0.020004272,0.08178711,19.630432,11.160278,-51.31073,
4709953164618,-0.07281494,1.2587891,7.138733,-0.122528076,0.026519775,0.06820679,19.630432,11.160278,-51.31073,
4709958200018,-0.15652466,1.3442078,7.3408203,-0.11793518,0.03425598,0.060272217,19.363403,10.2005005,-51.208496,
4709963235419,-0.32463074,1.3251343,7.3890686,-0.10862732,0.039352417,0.05429077,19.363403,10.2005005,-51.208496,
4709968270819,-0.3922882,1.3074188,7.4079742,-0.09454346,0.044143677,0.050842285,19.363403,10.2005005,-51.208496,
4709973306219,-0.37179565,1.3020477,7.5335083,-0.08148193,0.051086426,0.05088806,19.363403,10.2005005,-51.208496,
4709978341620,-0.38613892,1.3780212,7.73024,-0.07408142,0.061019897,0.05580139,19.178772,9.768677,-50.907898,
4709983377020,-0.3781891,1.5088501,7.9430084,-0.073349,0.07347107,0.06390381,19.178772,9.768677,-50.907898,
4709988412421,-0.37480164,1.5281372,8.108459,-0.07136536,0.08590698,0.06918335,19.178772,9.768677,-50.907898,
4709993447821,-0.38356018,1.5035553,8.303909,-0.063934326,0.09942627,0.07287598,19.178772,9.768677,-50.907898,
4709998483221,-0.40109253,1.4719238,8.526337,-0.050750732,0.10592651,0.073638916,20.491028,11.080933,-51.023865,
4710003518622,-0.44673157,1.4237366,8.676559,-0.030456543,0.105895996,0.07539368,20.491028,11.080933,-51.023865,
4710008554022,-0.56211853,1.4014893,8.80246,-0.0031738281,0.098480225,0.07939148,20.491028,11.080933,-51.023865,
4710013589422,-0.69844055,1.4111328,8.855713,0.027145386,0.08694458,0.085632324,20.491028,11.080933,-51.023865,
4710018624823,-0.6091614,1.478302,8.928223,0.06021118,0.073913574,0.09265137,19.496155,11.776733,-50.24872,
4710023660223,-0.48416138,1.5426941,9.010361,0.09919739,0.0579834,0.10458374,19.496155,11.776733,-50.24872,
4710028695624,-0.46224976,1.649353,8.879257,0.1324768,0.042633057,0.117630005,19.496155,11.776733,-50.24872,
4710033731024,-0.3803711,1.7747345,8.970551,0.15611267,0.034469604,0.12667847,19.496155,11.776733,-50.24872,
4710038766424,-0.31166077,1.8634949,9.0325165,0.16958618,0.033096313,0.12913513,18.83545,11.828613,-49.902344,
4710043801825,-0.20783997,1.9334564,9.023499,0.17311096,0.03842163,0.13024902,18.83545,11.828613,-49.902344,
4710048837225,-0.16656494,2.0102081,9.014511,0.17311096,0.050567627,0.12519836,18.83545,11.828613,-49.902344,
4710053872626,-0.16647339,2.1529694,9.044968,0.17208862,0.066604614,0.118133545,19.226074,11.436462,-49.264526,
4710058908026,-0.1338501,2.2073212,9.154892,0.1734314,0.07527161,0.10923767,19.226074,11.436462,-49.264526,
4710063943426,-0.16496277,2.1649017,9.08638,0.18000793,0.06541443,0.09701538,19.226074,11.436462,-49.264526,
4710068978827,-0.15879822,2.1395264,9.054977,0.19918823,0.042053223,0.082977295,19.226074,11.436462,-49.264526,
4710074014227,-0.21057129,2.1526337,9.031784,0.22387695,0.0035095215,0.06983948,20.66803,10.258484,-50.349426,
4710079049628,-0.26039124,2.0917053,9.109848,0.2454071,-0.04560852,0.056762695,20.66803,10.258484,-50.349426,
4710084085028,-0.2889099,1.9815216,9.329056,0.2682495,-0.11402893,0.04547119,20.66803,10.258484,-50.349426,
4710089120428,-0.22544861,1.9102631,9.647842,0.27986145,-0.17956543,0.03779602,20.66803,10.258484,-50.349426,
4710094155829,-0.09527588,1.9585266,9.832153,0.28485107,-0.23443604,0.03475952,21.06781,9.939575,-50.74005,
4710099191229,0.19534302,2.0899506,10.004379,0.2871399,-0.2752533,0.032546997,21.06781,9.939575,-50.74005,
4710104226629,0.5220337,2.2026978,10.253769,0.28323364,-0.29690552,0.02885437,21.06781,9.939575,-50.74005,
4710109262030,0.7802124,2.3244934,10.456345,0.2680664,-0.3017273,0.016937256,21.06781,9.939575,-50.74005,
4710114297430,0.8499603,2.2924042,10.582108,0.23957825,-0.2888031,-0.013168335,19.792175,11.497498,-50.325012,
4710119332831,0.7928314,2.2219849,10.65593,0.2062378,-0.26205444,-0.053344727,19.792175,11.497498,-50.325012,
4710124368231,0.61164856,2.0905914,10.69429,0.16827393,-0.22996521,-0.10189819,19.792175,11.497498,-50.325012,
4710129403631,0.39526367,1.9009247,10.728943,0.12974548,-0.20175171,-0.1524353,19.792175,11.497498,-50.325012,
4710134439032,0.14093018,1.6829529,10.89856,0.09489441,-0.18154907,-0.19662476,20.092773,10.115051,-51.62964,
4710139474432,-0.1278534,1.5340881,11.223785,0.063323975,-0.1716156,-0.23083496,20.092773,10.115051,-51.62964,
4710144509833,-0.34802246,1.367691,11.366837,0.038009644,-0.17416382,-0.25386047,20.092773,10.115051,-51.62964,
4710149545233,-0.42834473,1.2349243,11.363327,0.028915405,-0.1856842,-0.26319885,20.092773,10.115051,-51.62964,
4710154580633,-0.39265442,1.179184,11.433975,0.033981323,-0.2040863,-0.26139832,20.20874,9.768677,-51.913452,
4710159616034,-0.38996887,1.1960754,11.553421,0.044891357,-0.22799683,-0.25056458,20.20874,9.768677,-51.913452,
4710164651434,-0.40574646,1.2435303,11.615173,0.053878784,-0.25431824,-0.23791504,20.20874,9.768677,-51.913452,
4710169686835,-0.37391663,1.2743378,11.614777,0.06365967,-0.2788849,-0.22645569,20.20874,9.768677,-51.913452,
4710174722235,-0.2203064,1.2785034,11.622772,0.07609558,-0.29849243,-0.21635437,20.666504,9.002686,-50.271606,
4710179757635,-0.034622192,1.3363953,11.663864,0.085617065,-0.31611633,-0.2088623,20.666504,9.002686,-50.271606,
4710184793036,0.091674805,1.4234772,11.732483,0.09197998,-0.33343506,-0.20425415,20.666504,9.002686,-50.271606,
4710189828436,0.2191925,1.4861603,11.696289,0.098098755,-0.34979248,-0.2043457,20.666504,9.002686,-50.271606,
4710194863837,0.35534668,1.5256805,11.529938,0.1030426,-0.36216736,-0.20835876,19.032288,9.370422,-51.419067,
4710199899237,0.5408478,1.5580292,11.411133,0.10267639,-0.36915588,-0.21736145,19.032288,9.370422,-51.419067,
4710204934637,0.61328125,1.61763,11.368683,0.092681885,-0.3706665,-0.23297119,19.032288,9.370422,-51.419067,
4710209970038,0.7187195,1.6743011,11.172272,0.07423401,-0.36763,-0.2542572,19.032288,9.370422,-51.419067,
4710215005438,0.88305664,1.714447,10.923294,0.05027771,-0.36087036,-0.28120422,18.83545,9.425354,-51.57776,
4710220040838,1.0034943,1.757721,10.759659,0.017913818,-0.35324097,-0.3143921,18.83545,9.425354,-51.57776,
4710225076239,0.88531494,1.7107391,10.750168,-0.022994995,-0.3498993,-0.3537445,18.83545,9.425354,-51.57776,
4710230111639,0.69573975,1.6040344,11.08078,-0.08055115,-0.34846497,-0.4073639,18.83545,9.425354,-51.57776,
4710235147040,0.44084167,1.3856964,11.525101,-0.14756775,-0.34736633,-0.46287537,19.328308,9.259033,-52.05841,
4710240182440,0.09992981,1.080246,11.9808655,-0.21418762,-0.34085083,-0.5155182,19.328308,9.259033,-52.05841,
4710245217840,-0.19688416,0.84521484,12.299179,-0.27067566,-0.32391357,-0.5605774,19.328308,9.259033,-52.05841,
4710250253241,-0.4897766,0.62179565,12.542877,-0.30992126,-0.29875183,-0.5889435,19.328308,9.259033,-52.05841,
4710255288641,-0.76708984,0.40885925,12.8396,-0.3374176,-0.27244568,-0.6008148,18.855286,10.075378,-51.27716,
4710260324042,-1.0471954,0.20809937,13.110611,-0.3506317,-0.24934387,-0.6004944,18.855286,10.075378,-51.27716,
4710265359442,-1.2518005,0.048706055,13.142899,-0.34521484,-0.2345581,-0.58602905,18.855286,10.075378,-51.27716,
4710270394842,-1.3300171,-0.06629944,13.157623,-0.32722473,-0.22354126,-0.5582886,18.855286,10.075378,-51.27716,
4710275430243,-1.2781067,-0.07745361,13.220535,-0.2970581,-0.22540283,-0.51834106,18.83545,10.1119995,-51.24359,
4710280465643,-1.1471863,0.0015411377,13.272461,-0.2970581,-0.22540283,-0.51834106,18.83545,10.1119995,-51.24359,
4710285501044,-0.8213043,0.11393738,13.047684,-0.20578003,-0.27038574,-0.4236908,18.83545,10.1119995,-51.24359,
4710290536444,-0.50486755,0.27256775,12.767914,-0.13816833,-0.3073578,-0.37239075,18.83545,10.1119995,-51.24359,
4710295571844,-0.114730835,0.44673157,12.525375,-0.07556152,-0.3368988,-0.330719,18.83545,10.1119995,-51.24359,
4710300607245,0.2947235,0.649353,12.219131,-0.020019531,-0.35403442,-0.29936218,18.83545,10.1119995,-51.24359,
4710305642645,0.68193054,0.8450165,11.966461,0.022201538,-0.35705566,-0.2824402,18.83545,10.1119995,-51.24359,
4710310678046,0.94841003,1.0397339,11.6371,0.05380249,-0.3493805,-0.27894592,15.419006,11.164856,-50.595093,
4710315713446,1.1629791,1.1860809,11.191238,0.077301025,-0.33358765,-0.28889465,15.419006,11.164856,-50.595093,
4710320748846,1.2007904,1.2577057,10.747437,0.08917236,-0.29866028,-0.31848145,15.419006,11.164856,-50.595093,
4710325784247,1.0561981,1.194931,10.4142,0.08320618,-0.24667358,-0.35424805,15.419006,11.164856,-50.595093,
4710330819647,0.8916626,1.1263428,10.102188,0.062301636,-0.17514038,-0.39283752,16.259766,12.34436,-51.745605,
4710335855047,0.7911835,1.0447693,9.772873,0.024429321,-0.08961487,-0.42662048,16.259766,12.34436,-51.745605,
4710340890448,0.71095276,1.0064697,9.426178,-0.018463135,-6.1035156E-5,-0.45066833,16.259766,12.34436,-51.745605,
4710345925848,0.55422974,0.9922943,9.061356,-0.060455322,0.087905884,-0.46513367,16.259766,12.34436,-51.745605,
4710350961249,0.46432495,0.9592438,8.843521,-0.10519409,0.1746521,-0.47494507,16.194153,12.255859,-51.808167,
4710355996649,0.38879395,0.9732208,8.591339,-0.14115906,0.23712158,-0.47857666,16.194153,12.255859,-51.808167,
4710361032049,0.36912537,0.9565735,8.324921,-0.16558838,0.27545166,-0.47779846,16.194153,12.255859,-51.808167,
4710366067450,0.3871765,0.9917755,8.2443695,-0.1783905,0.2879486,-0.47355652,16.194153,12.255859,-51.808167,
4710371102850,0.38687134,1.0512085,8.3181305,-0.18405151,0.2783661,-0.46531677,15.200806,10.971069,-52.638245,
4710376138251,0.30517578,1.0413818,8.395889,-0.1822815,0.24958801,-0.45690918,15.200806,10.971069,-52.638245,
4710381173651,0.22280884,0.98513794,8.378281,-0.17114258,0.20777893,-0.45007324,15.200806,10.971069,-52.638245,
4710386209051,0.11975098,0.94221497,8.214111,-0.15472412,0.16659546,-0.4434967,15.200806,10.971069,-52.638245,
4710391244452,0.04649353,0.9362793,8.071747,-0.14004517,0.13282776,-0.43441772,14.886475,10.971069,-51.411438,
4710396279852,0.08055115,0.9715271,8.02681,-0.13452148,0.10939026,-0.4208374,14.886475,10.971069,-51.411438,
4710401315253,0.21234131,1.0665131,8.041534,-0.1424408,0.09402466,-0.40602112,14.886475,10.971069,-51.411438,
4710406350653,0.3373108,1.1370392,8.0555725,-0.15995789,0.08479309,-0.39239502,14.886475,10.971069,-51.411438,
4710411386053,0.341568,1.1569824,7.9653625,-0.182724,0.07974243,-0.3854828,15.141296,11.140442,-51.368713,
4710416421454,0.2830658,1.1648102,7.945633,-0.2043457,0.07473755,-0.38648987,15.141296,11.140442,-51.368713,
4710421456854,0.18933105,1.1134033,8.02742,-0.22177124,0.06529236,-0.39175415,15.141296,11.140442,-51.368713,
4710426492254,0.07546997,1.0256348,8.1540985,-0.23908997,0.05055237,-0.39898682,15.141296,11.140442,-51.368713,
4710431527655,-0.094955444,0.9382324,8.459473,-0.25413513,0.034973145,-0.40364075,16.819763,12.57019,-51.197815,
4710436563055,-0.31607056,0.789978,8.868866,-0.2658081,0.017562866,-0.40345764,16.819763,12.57019,-51.197815,
4710441598456,-0.5003357,0.6359253,9.158295,-0.26985168,0.0026397705,-0.39668274,16.819763,12.57019,-51.197815,
4710446633856,-0.6755371,0.527359,9.387543,-0.26005554,-0.004211426,-0.3794098,16.819763,12.57019,-51.197815,
4710451669256,-0.77381897,0.4308319,9.552155,-0.23460388,-5.645752E-4,-0.35061646,16.088867,13.88855,-51.913452,
4710456704657,-0.77075195,0.41964722,9.48262,-0.19859314,0.010925293,-0.31159973,16.088867,13.88855,-51.913452,
4710461740057,-0.77345276,0.45002747,9.208679,-0.15290833,0.0256958,-0.26756287,16.088867,13.88855,-51.913452,
4710466775458,-0.65808105,0.5465088,8.82782,-0.09713745,0.04524231,-0.21261597,16.088867,13.88855,-51.913452,
4710471810858,-0.461792,0.6965637,8.40033,-0.039871216,0.06253052,-0.15803528,16.221619,13.821411,-51.84784,
4710476846258,-0.27770996,0.880188,7.8989563,0.0084991455,0.07519531,-0.10926819,16.221619,13.821411,-51.84784,
4710481881659,-0.08958435,1.0648499,7.372284,0.04988098,0.08439636,-0.06867981,16.221619,13.821411,-51.84784,
4710486917059,0.14073181,1.2192993,6.9949036,0.079574585,0.089263916,-0.03718567,16.221619,13.821411,-51.84784,
4710491952460,0.45811462,1.3831177,6.71875,0.1006012,0.08602905,-0.018676758,16.88385,13.653564,-51.75476,
4710496987860,0.54959106,1.5755463,6.4844666,0.11672974,0.07537842,-0.009048462,16.88385,13.653564,-51.75476,
4710502023260,0.5853119,1.6390228,6.2174225,0.13195801,0.054153442,-0.012710571,16.88385,13.653564,-51.75476,
4710507058661,0.46655273,1.6824646,5.8123016,0.15466309,0.024887085,-0.022369385,17.289734,14.060974,-52.416992,
4710512094061,0.4395752,1.6647644,5.492676,0.17636108,-0.006652832,-0.037506104,17.289734,14.060974,-52.416992,
4710517129462,0.40797424,1.7053986,5.327896,0.17636108,-0.006652832,-0.037506104,17.289734,14.060974,-52.416992,
4710522164862,0.542099,1.7744141,5.1725464,0.17756653,-0.057281494,-0.056488037,17.289734,14.060974,-52.416992,
4710527200262,0.5699158,1.8794403,5.2421417,0.14955139,-0.058502197,-0.06034851,17.466736,13.70697,-52.416992,
4710532235663,0.65156555,1.8775024,5.5388336,0.103530884,-0.038742065,-0.067337036,17.466736,13.70697,-52.416992,
4710537271063,0.7082062,1.9117737,5.8808136,0.047805786,-0.007369995,-0.07859802,17.466736,13.70697,-52.416992,
4710542306463,0.6468353,1.9133606,5.9965363,1.0681152E-4,0.031967163,-0.09312439,17.466736,13.70697,-52.416992,
4710547341864,0.5737152,1.8975677,6.093231,-0.035491943,0.07652283,-0.108932495,17.45758,13.017273,-52.737427,
4710552377264,0.46826172,1.8630981,6.155182,-0.057174683,0.11482239,-0.12232971,17.45758,13.017273,-52.737427,
4710557412665,0.47373962,1.7660828,6.208603,-0.072387695,0.14915466,-0.1368103,17.45758,13.017273,-52.737427,
4710562448065,0.37487793,1.7230682,6.4004517,-0.08242798,0.17254639,-0.14746094,17.45758,13.017273,-52.737427,
4710567483465,0.24131775,1.7057343,6.540268,-0.09283447,0.19108582,-0.1567688,16.088867,13.88855,-53.588867,
4710572518866,0.15371704,1.6919708,6.5492706,-0.10211182,0.21516418,-0.16297913,16.088867,13.88855,-53.588867,
4710577554266,0.18844604,1.7320099,6.6088104,-0.1131134,0.24371338,-0.16368103,16.088867,13.88855,-53.588867,
4710582589667,0.19139099,1.7119446,6.7894135,-0.12414551,0.26464844,-0.16107178,16.088867,13.88855,-53.588867,
4710587625067,0.07406616,1.6341858,7.0983124,-0.13343811,0.2741089,-0.15956116,16.253662,13.279724,-52.9953,
4710592660467,-0.052627563,1.5589905,7.530533,-0.13923645,0.2725067,-0.15814209,16.253662,13.279724,-52.9953,
4710597695868,-0.17553711,1.4837799,7.9181366,-0.13716125,0.2601471,-0.15531921,16.253662,13.279724,-52.9953,
4710602731268,-0.32868958,1.4359436,8.143692,-0.114730835,0.23609924,-0.14556885,16.253662,13.279724,-52.9953,
4710607766669,-0.37806702,1.4100647,8.132233,-0.06906128,0.19967651,-0.13032532,17.06543,12.231445,-51.51825,
4710612802069,-0.32295227,1.4069366,8.029724,-0.0036315918,0.15185547,-0.108047485,17.06543,12.231445,-51.51825,
4710617837469,-0.20744324,1.4724426,7.8399353,0.07371521,0.09387207,-0.079055786,17.06543,12.231445,-51.51825,
4710622872870,-8.69751E-4,1.5861053,7.610565,0.14227295,0.03817749,-0.051208496,17.06543,12.231445,-51.51825,
4710627908270,0.18769836,1.701828,7.4872437,0.19309998,-0.009902954,-0.027709961,17.977905,12.687683,-51.075745,
4710632943671,0.2998047,1.7546539,7.5362396,0.21713257,-0.040664673,-0.013137817,17.977905,12.687683,-51.075745,
4710637979071,0.37139893,1.7851105,7.757187,0.21188354,-0.049697876,-0.009140015,17.977905,12.687683,-51.075745,
4710643014471,0.35916138,1.7901306,8.0914,0.18121338,-0.038269043,-0.014251709,17.977905,12.687683,-51.075745,
4710648049872,0.23939514,1.7266235,8.503555,0.13330078,-0.006729126,-0.024536133,17.710876,12.687683,-50.816345,
4710653085272,0.07400513,1.6517792,8.890015,0.08456421,0.03526306,-0.03475952,17.710876,12.687683,-50.816345,
4710658120672,-0.044006348,1.5625,9.264328,0.041259766,0.08004761,-0.04324341,17.710876,12.687683,-50.816345,
4710663156073,-0.15011597,1.4984741,9.722794,0.006500244,0.12055969,-0.046676636,17.710876,12.687683,-50.816345,
4710668191473,-0.2992096,1.4794159,10.237793,-0.017669678,0.15029907,-0.043685913,18.04657,12.754822,-51.01013,
4710673226874,-0.51782227,1.4641418,10.618759,-0.026290894,0.17024231,-0.03668213,18.04657,12.754822,-51.01013,
4710678262274,-0.66641235,1.4180145,10.828339,-0.013549805,0.18283081,-0.028076172,18.04657,12.754822,-51.01013,
4710683297674,-0.7841797,1.4332275,10.810043,0.016998291,0.1882019,-0.013748169,18.04657,12.754822,-51.01013,
4710688333075,-0.9710388,1.4551392,10.7044525,0.05758667,0.18084717,0.005050659,19.178772,12.858582,-51.913452,
4710693368475,-1.0394592,1.4427643,10.49942,0.101486206,0.1566925,0.028701782,19.178772,12.858582,-51.913452,
4710698403876,-1.0939789,1.4198608,10.373062,0.14239502,0.12013245,0.054153442,19.178772,12.858582,-51.913452,
4710703439276,-1.019165,1.5112762,10.364471,0.17729187,0.07324219,0.0879364,19.178772,12.858582,-51.913452,
4710708474676,-0.8386078,1.6480255,10.427689,0.19636536,0.02053833,0.12487793,18.24646,12.702942,-51.15509,
4710713510077,-0.65211487,1.74469,10.603012,0.21083069,-0.038345337,0.16093445,18.24646,12.702942,-51.15509,
4710718545477,-0.44599915,1.877945,10.822678,0.22218323,-0.09851074,0.19320679,18.24646,12.702942,-51.15509,
4710723580878,-0.28494263,1.9436951,11.003662,0.2340393,-0.15838623,0.21794128,18.24646,12.702942,-51.15509,
4710728616278,-0.16648865,1.9470215,11.374466,0.23971558,-0.20448303,0.23396301,17.358398,12.913513,-51.25122,
4710733651678,-0.012207031,2.0355682,11.823624,0.23937988,-0.24304199,0.24720764,17.358398,12.913513,-51.25122,
